Description	Fen2-30 (clean blank)																																																				
EEM type	"Dilution- & Scatter-corrected, Calibrated Data (ppb QSE)"																																																				
Scan date	1/19/2012 15:31																																																				
Excitation	240-500nm by 5nm																																																				
Emission	290-600nm by 2nm																																																				
Calibration	Michael_Fluoromax4_April08 (07-Apr-2008)																																																				
Slit settings	"5nm Excitation, 5nm Emission"																																																				
Dilution	6																																																				
Row 1	Excitation(nm)																																																				
Col 1	Emission(nm)																																																				
Data	Fluorescence(ppb QSE)																																																				
																																																					
	240	245	250	255	260	265	270	275	280	285	290	295	300	305	310	315	320	325	330	335	340	345	350	355	360	365	370	375	380	385	390	395	400	405	410	415	420	425	430	435	440	445	450	455	460	465	470	475	480	485	490	495	500
290	0	0	0	0	0	0	0	0	0	0	0	0	0	0	0	0	0	0	0	0	0	0	0	0	0	0	0	0	0	0	0	0	0	0	0	0	0	0	0	0	0	0	0	0	0	0	0	0	0	0	0	0	0
292	0	0	0	0	0	0	0.2096	1.282	0	0	0	0	0	0	0	0	0	0	0	0	0	0	0	0	0	0	0	0	0	0	0	0	0	0	0	0	0	0	0	0	0	0	0	0	0	0	0	0	0	0	0	0	0
294	0	0	0	0	0	0.439	1.0366	2.5367	0	0	0	0	0	0	0	0	0	0	0	0	0	0	0	0	0	0	0	0	0	0	0	0	0	0	0	0	0	0	0	0	0	0	0	0	0	0	0	0	0	0	0	0	0
296	0	0	0	0	0.7042	1.3009	3.8072	3.7589	1.6385	0	0	0	0	0	0	0	0	0	0	0	0	0	0	0	0	0	0	0	0	0	0	0	0	0	0	0	0	0	0	0	0	0	0	0	0	0	0	0	0	0	0	0	0
298	0	0	0	0	1.6205	2.1384	6.5022	4.9435	2.6944	0	0	0	0	0	0	0	0	0	0	0	0	0	0	0	0	0	0	0	0	0	0	0	0	0	0	0	0	0	0	0	0	0	0	0	0	0	0	0	0	0	0	0	0
300	2.8623	0	0	0	2.5111	4.975	8.3929	6.0938	3.7203	0	0	0	0	0	0	0	0	0	0	0	0	0	0	0	0	0	0	0	0	0	0	0	0	0	0	0	0	0	0	0	0	0	0	0	0	0	0	0	0	0	0	0	0
302	0	0	0	0	3.4303	7.858	9.6622	8.0837	4.7924	0	0	0	0	0	0	0	0	0	0	0	0	0	0	0	0	0	0	0	0	0	0	0	0	0	0	0	0	0	0	0	0	0	0	0	0	0	0	0	0	0	0	0	0
304	1.2542	0	0	0	2.8924	10.7538	10.9362	10.0816	5.8684	1.7499	0	0	0	0	0	0	0	0	0	0	0	0	0	0	0	0	0	0	0	0	0	0	0	0	0	0	0	0	0	0	0	0	0	0	0	0	0	0	0	0	0	0	0
306	0	0	0	0	6.744	13.6557	12.9897	11.6163	6.9448	3.5049	0	0	0	0	0	0	0	0	0	0	0	0	0	0	0	0	0	0	0	0	0	0	0	0	0	0	0	0	0	0	0	0	0	0	0	0	0	0	0	0	0	0	0
308	0.3824	0	0	0	8.4726	16.5593	15.042	12.683	9.3133	5.2624	0	0	0	0	0	0	0	0	0	0	0	0	0	0	0	0	0	0	0	0	0	0	0	0	0	0	0	0	0	0	0	0	0	0	0	0	0	0	0	0	0	0	0
310	2.6597	0	0	3.0886	10.2127	17.3438	17.0986	13.7515	11.6872	7.0235	1.8607	0	0	0	0	0	0	0	0	0	0	0	0	0	0	0	0	0	0	0	0	0	0	0	0	0	0	0	0	0	0	0	0	0	0	0	0	0	0	0	0	0	0
312	0	1.0475	0	3.601	11.5524	18.0557	19.0437	16.0069	13.6582	8.7349	3.7026	0	0	0	0	0	0	0	0	0	0	0	0	0	0	0	0	0	0	0	0	0	0	0	0	0	0	0	0	0	0	0	0	0	0	0	0	0	0	0	0	0	0
314	2.391	0	1.4234	4.3178	10.0825	19.621	20.9682	18.239	15.2871	10.509	5.5258	0	0	0	0	0	0	0	0	0	0	0	0	0	0	0	0	0	0	0	0	0	0	0	0	0	0	0	0	0	0	0	0	0	0	0	0	0	0	0	0	0	0
316	6.4376	3.7877	4.6762	7.6792	12.9803	18.4531	22.9398	20.3798	16.8422	12.2237	7.3059	1.6059	0	0	0	0	0	0	0	0	0	0	0	0	0	0	0	0	0	0	0	0	0	0	0	0	0	0	0	0	0	0	0	0	0	0	0	0	0	0	0	0	0
318	9.2759	2.5821	5.9212	6.9756	13.048	19.8068	24.6974	22.4061	18.3838	13.8347	9.0245	3.1738	0	0	0	0	0	0	0	0	0	0	0	0	0	0	0	0	0	0	0	0	0	0	0	0	0	0	0	0	0	0	0	0	0	0	0	0	0	0	0	0	0
320	13.4338	4.6562	4.5712	9.0521	15.3404	20.6595	25.0184	24.3781	19.8834	15.3773	9.8486	4.7036	0	0	0	0	0	0	0	0	0	0	0	0	0	0	0	0	0	0	0	0	0	0	0	0	0	0	0	0	0	0	0	0	0	0	0	0	0	0	0	0	0
322	13.4852	5.9077	2.7535	10.8931	16.724	21.564	25.6799	25.6963	21.2414	16.7997	10.6001	6.1664	1.4067	0	0	0	0	0	0	0	0	0	0	0	0	0	0	0	0	0	0	0	0	0	0	0	0	0	0	0	0	0	0	0	0	0	0	0	0	0	0	0	0
324	10.3065	9.8297	10.504	13.0152	16.4167	21.3607	24.4617	25.336	22.5413	17.3749	11.5941	7.5766	2.7654	0	0	0	0	0	0	0	0	0	0	0	0	0	0	0	0	0	0	0	0	0	0	0	0	0	0	0	0	0	0	0	0	0	0	0	0	0	0	0	0
326	18.0327	9.7021	9.9049	15.8437	18.7735	20.4835	25.0388	25.7158	23.7723	17.9116	12.8108	8.4383	4.0742	0	0	0	0	0	0	0	0	0	0	0	0	0	0	0	0	0	0	0	0	0	0	0	0	0	0	0	0	0	0	0	0	0	0	0	0	0	0	0	0
328	19.5783	8.2843	11.7793	13.401	16.734	22.6708	24.5396	25.6604	23.3681	18.4086	13.9692	9.2593	5.3312	1.2287	0	0	0	0	0	0	0	0	0	0	0	0	0	0	0	0	0	0	0	0	0	0	0	0	0	0	0	0	0	0	0	0	0	0	0	0	0	0	0
330	16.1561	13.4409	11.0787	14.0509	19.6071	21.7816	25.1904	27.3989	24.4003	18.8736	14.6209	10.2007	6.5376	2.4108	0	0	0	0	0	0	0	0	0	0	0	0	0	0	0	0	0	0	0	0	0	0	0	0	0	0	0	0	0	0	0	0	0	0	0	0	0	0	0
332	21.1993	15.6178	14.1255	16.3511	17.4596	21.9986	24.2608	25.7227	25.1651	19.0991	15.073	11.1327	7.2966	3.5081	0	0	0	0	0	0	0	0	0	0	0	0	0	0	0	0	0	0	0	0	0	0	0	0	0	0	0	0	0	0	0	0	0	0	0	0	0	0	0
334	19.1074	14.8177	15.6683	17.5133	19.7189	22.1292	23.6098	25.6576	25.0211	20.0473	15.4697	11.9881	7.9964	4.5334	1.2011	0	0	0	0	0	0	0	0	0	0	0	0	0	0	0	0	0	0	0	0	0	0	0	0	0	0	0	0	0	0	0	0	0	0	0	0	0	0
336	18.5572	16.3565	16.1676	18.1464	17.5257	23.9108	24.184	24.0982	24.8144	21.1499	15.8272	12.4916	8.7442	5.492	2.3281	0	0	0	0	0	0	0	0	0	0	0	0	0	0	0	0	0	0	0	0	0	0	0	0	0	0	0	0	0	0	0	0	0	0	0	0	0	0
338	20.2892	17.541	13.9281	17.0581	19.8855	23.0003	24.6398	24.3234	24.2311	21.9427	16.1479	12.9527	9.5337	6.5658	3.3847	0	0	0	0	0	0	0	0	0	0	0	0	0	0	0	0	0	0	0	0	0	0	0	0	0	0	0	0	0	0	0	0	0	0	0	0	0	0
340	23.0274	19.4353	17.0974	17.9542	21.0665	23.0094	23.7641	23.285	23.6412	21.6247	16.743	13.3594	10.2556	7.5604	4.3693	1.2892	0	0	0	0	0	0	0	0	0	0	0	0	0	0	0	0	0	0	0	0	0	0	0	0	0	0	0	0	0	0	0	0	0	0	0	0	0
342	23.9044	17.0758	16.9003	19.192	19.2661	23.1829	23.673	24.4598	23.7429	21.9738	18.1111	13.7868	11.1367	8.4659	5.3109	2.5074	0	0	0	0	0	0	0	0	0	0	0	0	0	0	0	0	0	0	0	0	0	0	0	0	0	0	0	0	0	0	0	0	0	0	0	0	0
344	24.2976	20.562	17.6683	20.0361	21.8455	22.0305	24.1024	23.204	23.1684	21.5881	18.4737	14.1685	11.9514	9.2534	6.4434	3.6545	0.7348	0	0	0	0	0	0	0	0	0	0	0	0	0	0	0	0	0	0	0	0	0	0	0	0	0	0	0	0	0	0	0	0	0	0	0	0
346	26.6023	21.4995	19.8956	20.7631	21.7649	22.9488	24.4564	24.7276	24.3762	21.1493	19.2283	14.9053	12.733	10.0067	7.5205	4.7428	1.9361	0	0	0	0	0	0	0	0	0	0	0	0	0	0	0	0	0	0	0	0	0	0	0	0	0	0	0	0	0	0	0	0	0	0	0	0
348	30.2195	24.0141	20.9057	22.0348	20.8586	23.0969	23.467	23.5628	23.8886	21.5062	20.2028	17.1132	13.4902	10.9717	8.5189	5.7815	3.0788	0.868	0	0	0	0	0	0	0	0	0	0	0	0	0	0	0	0	0	0	0	0	0	0	0	0	0	0	0	0	0	0	0	0	0	0	0
350	27.8525	26.2057	21.4595	19.6153	21.7463	23.8593	24.5256	23.6628	24.6337	22.3361	19.6692	16.976	14.1924	11.8747	9.4243	6.7943	4.1609	1.9815	0.0211	0	0	0	0	0	0	0	0	0	0	0	0	0	0	0	0	0	0	0	0	0	0	0	0	0	0	0	0	0	0	0	0	0	0
352	31.5334	24.2054	22.3874	22.0536	21.3621	23.9542	23.6718	24.1927	24.2251	22.7367	21.0604	18.1916	15.5548	12.7182	10.273	7.748	5.1834	2.6186	1.0448	0	0	0	0	0	0	0	0	0	0	0	0	0	0	0	0	0	0	0	0	0	0	0	0	0	0	0	0	0	0	0	0	0	0
354	31.0396	26.3084	23.0289	22.2115	22.936	23.7668	24.6531	24.8983	23.6299	22.9398	21.0431	18.3539	16.2201	13.5	11.0945	8.6413	6.3653	4.1046	2.0266	0.1517	0	0	0	0	0	0	0	0	0	0	0	0	0	0	0	0	0	0	0	0	0	0	0	0	0	0	0	0	0	0	0	0	0
356	30.9258	27.2039	25.9605	22.5309	23.5808	23.8254	24.8838	24.5296	25.736	23.2762	21.8421	19.6971	17.5312	14.2691	12.1102	9.9358	7.7439	5.5247	3.1619	0.9375	0	0	0	0	0	0	0	0	0	0	0	0	0	0	0	0	0	0	0	0	0	0	0	0	0	0	0	0	0	0	0	0	0
358	29.8119	26.4883	25.7017	25.2623	22.9272	24.0084	24.2198	25.1434	25.3575	23.7391	21.8894	20.6623	19.3134	15.3622	13.3178	11.1956	9.1354	6.8942	4.5497	1.9196	0.8595	0	0	0	0	0	0	0	0	0	0	0	0	0	0	0	0	0	0	0	0	0	0	0	0	0	0	0	0	0	0	0	0
360	35.5929	31.1238	26.1251	27.1372	24.5504	25.6544	24.592	24.6985	25.5198	24.8104	23.5902	21.8097	19.7788	16.8553	14.4618	12.4468	10.4595	8.1995	5.8516	3.4113	1.2387	0	0	0	0	0	0	0	0	0	0	0	0	0	0	0	0	0	0	0	0	0	0	0	0	0	0	0	0	0	0	0	0
362	34.9734	31.8952	27.1569	27.2165	26.1746	26.1706	26.7124	26.3446	26.9685	25.7909	24.6224	22.4892	21.1537	18.7059	15.652	13.7551	11.7308	9.5541	7.1416	4.75	2.2681	0.4045	0	0	0	0	0	0	0	0	0	0	0	0	0	0	0	0	0	0	0	0	0	0	0	0	0	0	0	0	0	0	0
364	41.8017	33.7641	30.5885	27.801	27.1095	27.177	27.3241	27.4433	27.8843	26.0053	25.7031	23.1894	21.1793	19.9832	17.1737	15.0169	12.9576	10.9559	8.3888	5.6511	3.2964	1.6343	0	0	0	0	0	0	0	0	0	0	0	0	0	0	0	0	0	0	0	0	0	0	0	0	0	0	0	0	0	0	0
366	45.9623	33.981	31.6678	28.7952	28.5345	27.47	28.3264	27.7562	29.2928	27.2747	26.9814	25.5498	23.738	21.9449	19.0743	16.2456	14.2433	12.3192	9.6012	6.9808	4.3238	2.2848	0.539	0	0	0	0	0	0	0	0	0	0	0	0	0	0	0	0	0	0	0	0	0	0	0	0	0	0	0	0	0	0
368	43.7123	37.3404	35.0855	32.8247	30.6462	30.0547	28.9431	28.8704	29.4872	28.6008	27.6995	26.2702	24.6586	23.3644	20.5616	17.4448	15.5422	13.4673	10.8104	8.2745	5.5512	3.0276	1.2988	0	0	0	0	0	0	0	0	0	0	0	0	0	0	0	0	0	0	0	0	0	0	0	0	0	0	0	0	0	0
370	45.1588	42.6579	33.982	31.5007	31.2696	30.3141	30.4612	29.8278	29.169	29.6616	28.66	27.7084	26.248	24.1631	22.7544	19.3479	16.7972	14.5768	12.036	9.5278	7.0162	4.0983	2.2047	0	0	0	0	0	0	0	0	0	0	0	0	0	0	0	0	0	0	0	0	0	0	0	0	0	0	0	0	0	0
372	54.0468	41.9548	38.6782	35.6942	33.459	31.8862	30.9284	30.9898	31.0826	31.223	30.321	29.1831	27.9573	26.7915	24.4525	21.1081	18.101	15.7835	13.2886	11.2085	8.4718	5.4156	3.1598	1.1061	0	0	0	0	0	0	0	0	0	0	0	0	0	0	0	0	0	0	0	0	0	0	0	0	0	0	0	0	0
374	55.5218	43.969	39.2502	37.993	36.5137	33.9496	32.9104	32.1926	32.8028	31.7728	31.7161	30.958	30.8384	28.9199	26.6437	23.2353	19.376	17.4053	15.3383	13.264	9.8976	6.7514	3.9762	1.9571	0	0	0	0	0	0	0	0	0	0	0	0	0	0	0	0	0	0	0	0	0	0	0	0	0	0	0	0	0
376	59.6519	48.1852	42.7826	39.4455	36.7815	36.2309	34.7962	34.8042	33.3355	33.2836	33.3777	32.4548	32.1428	30.5727	27.963	25.6437	22.2848	19.3855	17.3304	14.7183	11.2839	7.7617	4.9753	2.9059	0.763	0	0	0	0	0	0	0	0	0	0	0	0	0	0	0	0	0	0	0	0	0	0	0	0	0	0	0	0
378	59.9303	52.0533	45.5767	41.0876	38.8539	38.1763	36.8327	35.6353	36.4586	36.128	36.0258	35.1434	34.5554	32.7834	30.1978	28.613	23.6309	21.3003	19.2592	16.1236	12.6266	9.3687	6.5773	3.5045	1.7421	0	0	0	0	0	0	0	0	0	0	0	0	0	0	0	0	0	0	0	0	0	0	0	0	0	0	0	0
380	65.007	52.9738	47.6506	44.4247	39.6255	39.4282	38.7768	38.1223	38.0477	37.5446	37.3066	36.2869	36.5699	35.0561	32.6414	29.9538	26.3385	23.1644	20.6004	17.4494	13.9341	10.9356	7.753	4.7621	2.6124	0.6472	0	0	0	0	0	0	0	0	0	0	0	0	0	0	0	0	0	0	0	0	0	0	0	0	0	0	0
382	70.343	56.938	52.2208	47.9604	43.1041	41.3512	39.6425	37.7816	38.2707	38.2833	39.6247	39.2177	38.0791	35.8488	34.4321	31.8538	28.3135	25.0922	22.0038	18.7823	15.705	12.5191	9.0778	5.9264	3.3822	1.5548	0	0	0	0	0	0	0	0	0	0	0	0	0	0	0	0	0	0	0	0	0	0	0	0	0	0	0
384	70.4739	60.3886	52.525	47.7639	45.6002	42.582	40.6377	40.0297	40.2668	40.2348	40.1756	40.7538	39.2734	39.1616	37.7853	34.3976	30.7651	26.7646	23.3834	20.093	17.4477	14.0774	10.4479	7.4086	4.446	2.3575	0.0594	0	0	0	0	0	0	0	0	0	0	0	0	0	0	0	0	0	0	0	0	0	0	0	0	0	0
386	70.541	63.4424	54.0637	52.9053	48.1997	45.3521	42.2874	41.4142	40.6806	41.0277	42.3514	42.5973	42.0704	41.3322	39.3784	36.6018	33.4788	29.2156	24.8319	21.8911	19.1444	15.6689	11.84	8.6417	5.6657	3.2975	1.0598	0	0	0	0	0	0	0	0	0	0	0	0	0	0	0	0	0	0	0	0	0	0	0	0	0	0
388	74.8169	66.7251	59.4967	53.1325	49.7376	46.6668	44.3196	43.6045	43.6811	42.8732	43.3679	44.7885	44.3639	43.183	41.625	38.7885	34.6369	31.5482	26.3665	23.7634	20.816	17.1397	13.2701	9.8018	6.5958	4.3253	1.9338	0	0	0	0	0	0	0	0	0	0	0	0	0	0	0	0	0	0	0	0	0	0	0	0	0	0
390	77.5735	72.58	61.8472	59.2491	53.8882	49.9645	46.2812	44.6713	44.0238	45.881	46.1379	46.5462	46.8981	46.2688	44.211	41.3494	37.2181	34.1993	29.6649	25.6352	22.4871	18.6099	14.6996	11.0469	8.1423	4.7221	2.7593	0.6801	0	0	0	0	0	0	0	0	0	0	0	0	0	0	0	0	0	0	0	0	0	0	0	0	0
392	87.2419	74.6721	61.8142	60.8694	54.7409	50.3839	47.1716	45.0618	46.1726	46.5338	46.5909	46.9704	48.5325	47.8896	46.4097	43.3108	39.6393	36.2486	32.207	27.3417	23.8385	19.9593	16.3255	12.6475	9.1887	6.3022	3.6726	1.6252	0	0	0	0	0	0	0	0	0	0	0	0	0	0	0	0	0	0	0	0	0	0	0	0	0
394	92.4253	76.888	66.7317	61.2397	55.9948	52.7593	49.3806	47.9338	47.4919	46.3836	48.4833	49.3247	50.1745	49.8225	48.808	45.8534	42.0729	38.006	34.2022	29.025	25.4771	21.8911	18.1787	14.2274	10.7602	7.5053	4.5353	2.4282	0.1783	0	0	0	0	0	0	0	0	0	0	0	0	0	0	0	0	0	0	0	0	0	0	0	0
396	91.0255	81.2301	71.8258	65.4236	56.9757	53.7263	51.4921	50.1792	49.0555	48.6851	49.7713	51.6221	52.5321	52.3009	51.3175	47.9557	45.0736	41.1405	36.1527	32.2717	27.4402	23.8344	19.9528	15.811	11.8247	8.9018	5.4062	3.3125	1.2157	0	0	0	0	0	0	0	0	0	0	0	0	0	0	0	0	0	0	0	0	0	0	0	0
398	93.5127	87.3283	76.1949	66.9828	62.3652	57.0147	52.9981	51.793	51.2532	51.209	51.798	53.9451	54.7728	55.2671	52.997	51.1007	47.1805	43.8879	39.1618	34.8657	29.4297	25.7107	21.7432	17.406	13.455	10.3317	7.0111	3.7656	2.2237	0	0	0	0	0	0	0	0	0	0	0	0	0	0	0	0	0	0	0	0	0	0	0	0
400	103.3328	90.5634	80.3251	69.7385	63.1741	59.7226	56.7172	53.0974	52.3207	52.4374	53.4258	56.0236	56.9514	56.8731	55.4662	53.6868	50.2767	46.7904	41.8953	37.4829	31.4063	27.5306	23.3538	19.0605	15.0747	11.3992	8.0172	4.8263	2.983	0.7804	0	0	0	0	0	0	0	0	0	0	0	0	0	0	0	0	0	0	0	0	0	0	0
402	99.8776	89.745	84.0941	72.2816	65.369	62.2326	56.6974	54.025	54.0832	54.7857	55.2477	57.666	59.6987	60.6292	58.6665	55.9252	53.0952	49.467	44.6627	40.1711	34.2123	29.2881	24.9106	20.8079	16.655	12.5444	9.3156	5.7885	3.7736	1.8416	0	0	0	0	0	0	0	0	0	0	0	0	0	0	0	0	0	0	0	0	0	0	0
404	106.9349	94.356	83.5076	76.182	69.7578	64.511	59.7461	57.1437	56.5094	56.5762	57.1934	59.1793	61.3998	62.4449	61.1315	58.6966	56.1318	52.1716	47.3796	42.8409	37.0787	31.0269	26.593	22.5372	18.219	14.004	10.3122	7.0614	4.394	2.8309	0.273	0	0	0	0	0	0	0	0	0	0	0	0	0	0	0	0	0	0	0	0	0	0
406	109.6091	99.3976	91.4381	77.1764	71.9146	67.5551	61.7178	58.8871	57.5503	57.5729	58.712	61.5947	62.7171	63.848	64.4122	61.2542	58.4154	54.1313	50.0182	44.9952	39.6407	32.8085	28.3813	24.1295	19.7644	15.4774	11.8562	8.4365	5.2896	3.324	1.232	0	0	0	0	0	0	0	0	0	0	0	0	0	0	0	0	0	0	0	0	0	0
408	118.0282	103.4888	93.1057	82.5507	74.6859	68.1019	64.3815	60.8144	59.6825	58.5314	60.9848	64.8202	64.7163	65.2279	65.767	64.6405	61.1849	58.35	53.3326	48.1708	41.8937	35.6333	30.2148	25.7595	21.2615	16.973	12.7914	9.3573	6.1542	4.0815	2.3434	0	0	0	0	0	0	0	0	0	0	0	0	0	0	0	0	0	0	0	0	0	0
410	117.7948	106.5335	92.3451	84.4812	79.2486	71.3208	65.0992	61.8677	61.6001	60.8633	61.7235	64.3183	66.7988	68.2618	68.2758	66.0859	63.8049	59.9541	55.4924	50.0079	44.6142	38.5692	32.0438	27.3062	22.7548	18.6265	14.2539	10.8411	7.4587	4.7421	3.1259	0.9731	0	0	0	0	0	0	0	0	0	0	0	0	0	0	0	0	0	0	0	0	0
412	121.0081	111.1686	97.4232	91.0137	79.5063	73.1214	69.1642	64.0867	62.9788	62.1353	64.2072	65.8656	69.4146	70.7259	70.2628	69.5516	66.6475	63.0077	58.8052	52.9495	47.092	41.2233	33.8708	28.9763	24.5709	20.439	15.7138	12.0777	8.6112	5.59	3.7611	1.8585	0	0.0086	0.0101	0	0	0	0	0	0	0	0	0	0	0	0	0	0	0	0	0	0
414	122.2497	112.224	102.43	91.6163	82.6954	75.8498	70.167	65.2094	64.5599	64.9696	65.5339	68.5361	70.7675	72.058	73.5559	71.9416	69.4208	66.3716	60.879	55.4055	49.8692	43.8517	37.2793	30.807	26.3828	21.8886	17.1701	12.8434	9.5627	6.636	4.4419	2.7833	0.4813	0.0257	0.0202	0	0	0	0	0	0	0	0	0	0	0	0	0	0	0	0	0	0
416	129.0691	121.5631	102.621	92.626	86.2806	77.4269	73.2138	66.9198	65.0859	65.7925	66.3849	68.7147	71.8204	74.3762	74.6071	74.4611	72.429	68.1811	63.3189	58.8458	52.6639	45.9481	38.989	32.708	28.2548	23.3877	18.6652	13.9685	10.7742	7.5945	5.303	3.3423	1.7115	0.0429	0.0303	0	0	0	0	0	0	0	0	0	0	0	0	0	0	0	0	0	0
418	132.3342	121.7153	105.5674	98.6548	87.2089	80.2291	75.6662	68.4992	68.4472	66.2576	67.7452	70.6472	72.9587	75.6054	77.5331	76.7938	74.0371	70.6346	65.9874	61.501	54.8606	48.568	42.0792	34.6921	29.8371	24.9466	20.2685	15.5423	11.8763	8.982	6.0826	4.4371	2.5999	0.0603	0.0203	0	0	0	0	0	0	0	0	0	0	0	0	0	0	0	0	0	0
420	134.5388	121.2467	110.8864	97.9787	90.8927	82.6079	75.5643	71.0074	69.3152	67.5805	68.8504	72.2645	74.8299	77.2952	79.2549	78.9041	76.1129	72.8549	69.602	64.2253	58.1325	51.1327	44.1005	36.6893	31.4893	26.6343	21.8597	17.1264	13.2953	9.8481	7.3079	4.9015	3.3226	1.4593	0.0102	0	0	0	0	0	0	0	0	0	0	0	0	0	0	0	0	0	0
422	138.2433	126.6521	110.2009	100.9692	93.6643	83.4294	77.6746	72.521	69.3688	69.6143	70.3582	72.1411	77.0864	78.8127	80.0876	80.577	79.2629	76.8566	72.1736	66.5927	60.7299	53.6301	46.5571	39.2265	33.22	28.3399	23.3022	18.7252	14.2659	10.9508	8.1744	5.6888	4.1882	2.4599	0	0.1085	0.1271	0	0	0	0	0	0	0	0	0	0	0	0	0	0	0	0
424	141.0033	123.2307	115.1808	104.4123	97.1602	87.2035	78.9448	74.9269	71.2698	70.4	72.2027	74.8839	77.7669	80.8969	82.4379	83.2143	80.6975	79.843	73.972	69.374	63.2149	55.473	48.4795	41.7284	34.9626	29.892	24.7545	20.335	15.6516	12.4067	9.072	6.7045	4.9709	3.0035	1.0366	0.3265	0.2551	0	0	0	0	0	0	0	0	0	0	0	0	0	0	0	0
426	145.4734	133.1903	116.8992	107.0087	96.5031	88.4169	80.3475	74.6735	73.1432	71.9047	72.5214	75.049	79.7724	80.9284	84.4763	85.2104	83.5122	81.0009	76.0664	71.2875	64.7546	58.1505	50.9895	43.917	36.7766	31.4223	26.4293	21.7767	17.0742	13.4436	10.1812	7.5921	5.7296	4.0103	1.9888	0.5469	0.3845	0.0212	0	0	0	0	0	0	0	0	0	0	0	0	0	0	0
428	144.8972	131.1617	119.5616	108.9809	100.6859	90.101	84.0696	78.9236	73.8935	73.4556	73.7113	76.3696	80.8555	83.3611	85.0351	86.5235	86.1818	82.8841	80.3465	74.6285	67.0741	60.8599	53.2411	45.9416	39.5089	33.0201	28.1655	22.837	18.5405	14.7552	11.3183	8.6181	6.7393	4.781	2.9418	0.7706	0.3074	0.0426	0	0	0	0	0	0	0	0	0	0	0	0	0	0	0
430	148.9459	136.2905	121.9592	112.1328	104.0747	92.9815	87.3047	79.1941	75.5767	74.9088	75.2324	77.9704	81.7136	84.6804	86.8695	89.0416	88.31	86.3104	82.1864	77.4743	70.3828	62.8428	55.1781	48.0937	41.3937	34.6368	29.488	23.9095	20.025	15.9588	12.447	9.4832	7.3443	5.2103	3.8438	1.5483	0.2293	0.0643	0	0	0	0	0	0	0	0	0	0	0	0	0	0	0
432	150.965	139.382	122.2712	114.8682	106.1251	96.4799	86.513	79.8376	77.9601	75.5333	76.581	78.7401	83.5395	86.8994	89.4412	90.3079	90.2418	88.1116	84.7299	78.6901	73.0735	65.9911	57.6412	49.7632	42.9248	36.2325	30.5733	25.4082	21.4156	17.1582	13.4173	10.3507	8.262	6.1835	4.7516	2.6454	0.1501	0.1938	0.1509	0	0	0	0	0	0	0	0	0	0	0	0	0	0
434	152.2039	139.9477	126.2929	110.1472	107.7042	98.2418	88.654	81.1712	78.9707	76.1204	77.0896	79.4497	83.1085	87.7756	90.885	92.2334	92.3618	90.5635	87.1749	81.9502	74.7509	67.4306	59.5297	51.6587	45.0925	37.9835	31.6688	26.9222	22.6424	18.3698	14.3496	11.133	9.2462	6.9908	5.1369	3.5185	1.1799	0.4328	0.3034	0	0	0	0	0	0	0	0	0	0	0	0	0	0
436	158.5919	141.5222	127.7909	117.4978	109.1106	98.7496	91.1061	82.144	79.4027	76.0632	77.5371	80.5606	84.5681	88.7509	90.4087	93.8554	93.9818	92.8343	88.7695	84.7743	76.9751	69.4251	60.9551	53.5371	46.8046	40.3508	32.8167	28.3088	23.912	19.6188	15.243	12.6871	10.0354	7.5552	5.7633	4.2382	2.1025	0.6752	0.4581	0.029	0	0	0	0	0	0	0	0	0	0	0	0	0
438	153.6289	142.7466	129.9647	117.9537	107.6762	99.8872	90.3522	83.415	80.4259	78.2106	78.1791	81.3934	85.5898	89.3642	92.4088	96.4737	96.0354	93.9727	92.0153	86.3323	79.4453	71.61	62.968	55.2108	47.7458	42.0451	34.0207	29.568	25.0461	20.6338	16.3172	13.3432	11.0474	8.5626	6.454	4.805	2.7648	0.9218	0.3764	0.0585	0	0	0	0	0	0	0	0	0	0	0	0	0
440	160.4209	139.6035	135.2962	122.8796	110.3483	103.4559	92.7509	83.1889	80.7893	77.6579	78.782	82.7229	86.643	89.7679	94.4053	97.5187	97.4738	97.6464	93.9016	88.5247	81.5941	73.3939	64.3468	57.5035	49.8916	43.1159	36.2678	30.5676	26.0112	21.494	17.4064	14.301	11.9344	9.3888	6.9033	5.423	3.6305	1.659	0.2934	0.0884	0	0	0	0	0	0	0	0	0	0	0	0	0
442	166.392	146.8769	132.5694	122.8496	114.5911	101.917	94.5013	84.8488	82.5423	79.7033	79.6512	83.0788	85.9259	90.5227	94.995	98.0398	99.4025	97.8619	95.8235	90.1013	83.7161	75.5901	66.8815	59.0925	52.123	45.3732	38.1623	31.5551	26.9675	22.1955	18.4965	15.059	12.7186	10.3473	8.1469	6.1676	4.2732	2.3071	0.209	0.1909	0.1179	0	0	0	0	0	0	0	0	0	0	0	0
444	165.4369	143.9628	133.2095	123.2613	114.6111	105.3283	93.5499	87	81.4998	79.9226	79.8396	83.8353	87.722	91.7999	95.8542	98.6892	100.3421	100.5713	97.2915	92.1376	85.8236	77.6306	68.5504	59.9345	53.042	46.4866	39.3229	32.5535	27.7821	22.9047	19.6003	15.9582	13.3584	10.9172	8.6539	6.5263	4.9725	3.1959	1.2469	0.3675	0.2374	0	0	0	0	0	0	0	0	0	0	0	0
446	162.6605	154.6568	136.1276	122.435	115.8251	105.9071	94.4255	87.931	82.5978	80.7202	79.8931	83.3385	88.1088	92.0161	97.2662	98.8241	100.4414	101.48	98.4277	93.7329	87.4295	80.0004	70.4817	61.7907	54.5579	48.3176	40.9827	33.5846	28.5471	24.0545	20.5243	16.8793	14.4413	11.9108	9.8378	7.2562	5.5012	3.8669	1.8914	0.5468	0.3588	0.059	0	0	0	0	0	0	0	0	0	0	0
448	166.7797	149.8048	136.8445	126.8878	117.8585	105.4401	97.2388	86.9875	83.9764	79.1565	80.828	84.5043	88.2578	92.8994	96.8185	101.2044	102.0101	102.8323	100.0946	95.4296	88.9057	80.4909	71.801	62.8453	55.9176	49.0938	42.5105	35.4807	29.3394	25.2355	21.0568	17.824	15.2389	12.5702	10.3925	7.8116	5.9336	4.5349	2.8447	0.7292	0.38	0.1189	0	0	0	0	0	0	0	0	0	0	0
450	169.3873	152.7117	138.8701	128.0093	117.1386	108.3938	97.6743	88.3748	83.401	81.4939	82.7546	83.7497	88.2194	93.5408	97.6381	102.1081	103.268	105.0271	101.7495	97.2122	90.8961	82.2554	73.5076	64.9467	56.905	50.1338	43.247	36.9581	30.1409	26.0143	21.5952	18.7818	16.0202	13.471	11.2975	8.7037	6.5864	5.0246	3.4463	1.4718	0.4016	0.1797	0	0	0	0	0	0	0	0	0	0	0
452	166.6545	156.2602	140.1292	128.0265	118.5969	107.467	98.823	89.2751	84.9872	81.1871	81.9619	84.1049	88.2707	93.187	98.9429	102.0849	104.7072	105.5074	103.2103	98.2644	91.7917	83.1554	74.2177	64.9797	58.1974	51.7156	44.1967	37.3922	30.9659	26.6039	22.5998	19.7068	16.8199	14.266	11.9903	9.4653	7.3024	5.5615	3.869	2.2281	0.4236	0.318	0.1606	0	0	0	0	0	0	0	0	0	0
454	166.82	155.6461	140.4048	131.5908	119.7904	109.3361	98.1691	88.836	84.1348	82.6406	82.1712	85.0064	88.8282	93.4375	97.8324	103.0877	105.488	106.5805	103.6872	100.0319	93.2041	83.7775	75.3202	66.1891	58.3447	52.2789	45.4764	38.2048	32.2676	27.1997	23.6184	20.5335	17.6308	14.8728	12.3739	10.1611	7.7776	6.236	4.6195	2.95	1.5689	0.5357	0.3238	0	0	0	0	0	0	0	0	0	0
456	166.7866	149.3274	143.03	128.0603	120.6307	109.7674	99.8963	90.4872	84.6857	81.377	82.0299	84.6413	89.1758	93.8593	98.4151	102.5937	104.7814	106.9794	104.9082	99.9642	94.3245	86.1306	76.9675	67.3703	60.417	52.7099	46.5418	39.484	33.155	27.8448	24.5764	21.4042	18.4813	15.3417	13.2239	10.8933	8.668	6.7538	4.9746	3.5629	1.9082	0.7581	0.4904	0.0176	0	0	0	0	0	0	0	0	0
458	161.0786	155.51	142.0172	131.7546	121.7357	111.5642	99.7287	91.4777	85.575	82.332	82.8553	85.4854	88.5432	94.7447	98.9861	103.1741	106.3658	106.5036	105.65	101.5188	95.6391	87.0932	77.9258	69.3405	60.645	53.6605	46.7759	40.3626	34.3167	28.5409	25.3885	22.0376	18.9428	15.8967	13.9178	11.4549	9.3051	7.2603	5.3359	4.0684	2.5189	0.9862	0.3716	0.0355	0	0	0	0	0	0	0	0	0
460	160.8051	155.5557	142.6647	132.1409	120.8748	111.3215	98.1632	92.6626	85.6834	83.587	81.222	85.047	89.5446	93.1475	98.1719	103.5894	105.823	107.7636	106.3909	102.5724	95.7352	87.9977	78.1153	69.3286	61.1332	54.79	48.2589	41.78	34.7466	28.9825	25.7805	22.3922	19.2547	16.4602	14.4251	11.9921	9.7938	7.9793	5.9751	4.5787	3.0771	1.5829	0.25	0.0538	0	0	0	0	0	0	0	0	0
462	156.8232	156.9956	143.5652	131.3592	120.5796	111.543	99.5738	92.2677	87.779	83.4079	82.5844	83.9204	88.0368	93.5769	98.2705	102.221	106.4074	107.464	106.0164	102.8892	96.5804	88.1162	79.0559	69.5788	62.7336	55.1877	48.7504	41.6773	35.7186	31.0076	26.2038	22.7743	19.5709	17.051	14.871	12.7308	10.3283	8.3194	6.2617	5.055	3.7038	2.0218	0.1258	0.1199	0.0771	0	0	0	0	0	0	0	0
464	168.5983	151.174	141.1217	133.7959	124.7829	111.2887	100.0914	92.7819	87.3975	81.6234	82.6431	84.3373	89.0705	92.1362	97.8708	102.6119	107.1489	108.1723	106.7253	102.8112	97.295	89.368	79.6952	70.7116	63.2091	55.535	49.2886	42.6442	36.9115	31.2256	26.6298	23.1396	19.8891	17.6512	15.2537	13.1873	10.9533	9.0394	6.8156	5.2288	4.0232	2.6557	1.078	0.2354	0.156	0	0	0	0	0	0	0	0
466	165.1674	154.8783	144.7457	132.0773	120.5403	112.55	100.2261	92.0666	85.5967	81.9071	83.0067	84.7379	87.8333	92.924	97.7914	101.4137	106.3492	106.9106	106.0032	103.5726	96.9615	88.8861	79.3586	70.3888	62.9149	56.5225	49.7129	42.7921	36.9189	31.7691	27.067	23.5045	20.5301	18.1034	15.6461	13.9818	11.4219	9.3023	7.4812	5.8039	4.3249	3.214	1.614	0.3536	0.2368	0.0257	0	0	0	0	0	0	0
468	161.6615	148.6698	138.1658	130.3366	120.5085	111.2794	100.4238	92.4795	85.8479	81.4775	82.3483	85.226	86.8614	91.8123	97.3177	101.4335	104.3274	107.5632	106.6548	101.5371	96.7941	89.0411	79.999	70.5832	63.1377	57.1412	50.2026	43.1931	36.9392	32.3974	27.686	23.8788	21.1872	18.2367	16.0483	14.1137	11.8734	9.7942	7.772	5.9966	4.9114	3.4492	2.2685	0.4748	0.2201	0.0521	0	0	0	0	0	0	0
470	158.0271	145.6398	140.1234	130.1858	123.075	110.1142	100.5484	90.2444	86.5018	82.2445	80.8846	82.4449	87.4094	91.5353	94.9078	101.1826	103.1316	106.3045	105.6086	102.1305	96.6588	88.2614	79.2756	71.4001	63.7575	57.6361	50.4437	43.5678	37.6242	33.2327	28.3545	24.2551	21.5212	18.368	16.4557	14.3856	12.4245	10.0967	8.4029	6.5433	4.9991	3.8786	2.6744	1.3274	0.203	0.0791	0	0	0	0	0	0	0
472	154.6435	145.6391	135.7869	134.2039	120.3346	111.5947	100.3356	92.215	85.2479	81.7995	81.031	81.1554	87.2864	89.5658	94.7598	99.6228	102.9598	105.7839	102.4939	101.1213	95.0057	89.3447	79.1932	70.6396	64.0437	57.2569	50.8836	43.6835	38.2734	33.6312	28.9399	24.6923	21.74	18.8465	16.8702	14.6947	12.8016	10.9056	8.957	7.0419	5.1782	4.3615	3.0205	2.0135	0.1859	0.1634	0.0985	0	0	0	0	0	0
474	151.1044	153.9761	139.5556	124.7389	119.5995	107.6776	99.2929	90.0194	83.4427	81.6154	79.8741	81.7945	84.4323	88.5001	94.1873	98.9355	101.723	103.2191	103.1325	99.34	94.5126	86.7627	78.8286	71.2859	63.476	56.6948	50.5815	44.2903	38.9026	33.5266	29.4012	25.0412	21.9563	19.3313	17.2124	15.0067	13.2295	11.0083	9.3363	7.3744	5.6229	4.6593	3.4731	2.2939	0.9612	0.3072	0.1998	0	0	0	0	0	0
476	147.2717	150.1013	137.971	129.8817	119.574	105.1981	99.5175	88.7877	83.7796	80.1138	79.079	81.1022	85.1557	87.8109	92.2296	98.1616	99.6408	101.2403	101.3577	99.3795	94.2469	86.7626	78.1593	70.6165	63.6144	56.2977	50.4929	44.0912	38.4938	33.3876	29.7486	25.362	22.1499	19.7263	17.5416	15.3077	13.0065	11.6327	9.5224	7.877	6.0333	4.9622	3.9432	2.5804	1.6405	0.4545	0.3036	0.0754	0	0	0	0	0
478	143.163	145.9461	133.6065	125.7936	119.5475	107.5638	97.4112	89.5039	83.6446	78.621	78.4328	80.5853	82.4238	86.6441	89.9566	94.481	98.7616	100.2338	100.0766	96.9911	91.9618	85.4549	77.9115	69.6559	63.1766	56.3637	50.0451	44.3031	38.4809	34.1522	29.9278	26.0833	22.3209	20.0189	17.7593	15.4493	13.2901	11.7718	10.354	8.2517	6.2576	4.9171	4.1292	3.1237	1.9267	0.605	0.3819	0.1526	0	0	0	0	0
480	138.9235	141.6583	137.1615	127.9807	117.3452	108.9538	97.2746	88.2641	82.4912	78.3171	77.7061	79.1739	82.0183	84.7629	88.7642	93.1405	96.0193	99.3341	98.5554	95.5701	91.425	84.8185	77.3224	68.8396	62.5133	56.8964	50.291	44.5361	38.372	34.3298	30.3691	26.6851	23.0182	20.1649	17.8779	15.5769	13.5767	12.161	10.2958	8.6746	6.6451	5.5418	4.7068	3.6951	2.5181	1.3096	0.462	0.2316	0	0	0	0	0
482	134.268	136.9467	132.2776	123.8549	115.3278	108.8061	94.543	87.4118	81.6498	78.7043	76.6644	77.4437	79.9568	84.1487	87.4603	91.0387	94.7567	95.4734	96.724	93.6657	89.3186	83.1249	76.291	68.7638	61.4288	56.1051	50	44.1853	38.5114	34.4906	30.1545	26.4365	23.0773	20.2669	17.9572	15.7454	13.8376	12.0331	10.5489	8.5492	7.2815	5.6654	4.7626	3.7505	2.7659	1.759	0.5426	0.3343	0.1169	0	0	0	0
484	129.5093	132.1306	128.1976	120.4471	113.3326	107.3014	94.3598	86.1013	82.3435	78.1453	76.7031	76.4957	79.8654	82.1603	85.3057	89.8119	92.8004	94.5661	95.5654	92.4773	88.504	82.355	74.7725	67.3391	60.7039	54.9855	49.8617	44.5973	38.5953	34.454	30.6144	26.9096	23.5669	20.3672	18.1096	15.9143	14.1011	12.2222	11.0477	9.1999	7.5404	6.0788	4.8111	4.2042	3.0012	2.2493	1.1872	0.4619	0.2361	0	0	0	0
486	124.623	127.1853	125.4429	118.425	113.3094	104.4002	95.1672	86.1157	79.6088	75.5715	74.3012	75.5514	78.4715	80.1571	84.0689	88.0194	90.348	93.0402	92.845	89.8522	86.3991	79.7758	74.4782	67.0241	60.5314	54.6123	49.8859	43.9978	38.2757	33.8585	30.3294	26.9566	24.0313	20.4617	18.2959	16.1938	14.2821	12.4103	10.9985	9.3378	7.931	6.4626	5.0306	4.3718	3.5645	2.5648	1.2511	0.5916	0.3574	0.0259	0	0	0
488	119.6137	122.1153	122.5956	117.7741	112.1199	104.5134	92.9121	83.3992	80.345	74.9011	74.7032	74.5685	77.132	79.0254	82.8421	86.6161	88.965	90.8164	89.8263	88.1101	85.4792	79.1848	72.814	65.6473	60.2777	54.3096	49.4473	44.027	38.2301	34.4121	30.2112	27.3335	24.2086	21.5389	18.4789	16.4724	14.2955	12.5974	11.3828	10.0424	8.2611	6.9223	5.2105	4.6797	3.6176	2.8578	1.7838	0.7235	0.3011	0.0522	0	0	0
490	114.5083	116.9479	119.6819	115.4827	111.9683	103.8266	95.8109	83.4009	80.1074	74.3253	72.5975	73.9527	75.0828	77.3424	81.212	84.6515	87.8928	89.1103	88.7653	87.4965	83.1515	77.9978	71.3275	65.1334	59.4994	54.5053	48.583	43.6115	38.5662	34.1108	30.6705	27.1639	24.3777	21.2042	18.6623	16.5868	14.307	12.7859	11.2131	10.1517	8.5358	7.1973	5.6717	4.6862	3.9927	3.154	2.1415	1.1772	0.2438	0.079	0	0	0
492	109.4136	112.7439	116.8157	119.9273	110.9521	102.5258	92.1051	83.2428	77.9967	73.4802	71.9292	71.7023	75.01	75.7408	79.0948	82.9376	84.9601	85.4186	86.7674	85.0651	81.6827	75.9496	70.6713	63.8325	58.4984	54.0036	48.6177	43.1568	37.8933	33.9602	30.3582	26.9143	24.5054	21.5811	18.864	16.6325	14.5236	12.988	11.3578	10.2753	8.6667	7.361	5.8563	4.9633	4.2849	3.3789	2.6016	1.5217	0.1856	0.1768	0.1131	0	0
494	104.212	109.405	113.8757	114.1642	107.2664	101.6165	92.9063	83.3343	75.7407	72.0074	70.6741	69.9228	72.6786	73.7703	77.507	80.5014	82.4824	84.0627	85.3738	82.4731	79.4344	74.4675	68.6074	63.0968	57.673	53.1788	48.0454	43.009	37.4514	34.5372	30.5827	27.0015	24.3721	21.7707	19.3656	16.6758	14.7416	13.118	11.5033	10.646	9.0208	7.4901	6.2515	4.9661	4.3309	3.6386	2.9188	2.0821	0.8821	0.3474	0.2283	0	0
496	98.8735	105.9543	111.476	110.0053	106.1785	99.9425	89.6531	82.4312	76.4627	72.1931	70.1902	69.2423	70.3372	72.7757	74.7385	78.7685	80.5426	81.889	81.6593	79.866	77.6139	72.9444	66.6065	61.603	57.0033	52.1301	47.6771	42.3641	37.317	33.7648	30.0069	27.4187	24.5179	22.3086	19.6512	16.712	14.9197	13.2069	11.646	10.0713	9.3689	7.8379	6.6296	5.4478	4.3636	3.8739	2.9884	2.2483	1.1945	0.5211	0.3457	0.0588	0
498	93.4051	107.6142	105.6963	105.7271	106.471	96.9719	89.6607	81.2443	74.6743	71.1325	69.4648	68.4418	69.1551	70.8457	73.0078	77.3964	78.7095	78.9981	79.1217	79.0335	75.1771	71.2453	65.3147	60.5489	56.2599	51.8667	46.8762	41.9292	37.5437	33.6532	30.194	26.6307	24.359	22.2607	19.5412	16.7409	15.0194	13.2913	11.7858	10.2055	9.5093	8.0478	7.013	5.5892	4.5545	4.2092	3.5712	2.7076	1.6302	0.6977	0.3708	0.1186	0
500	99.8325	101.1324	99.814	101.3655	100.9763	94.1099	85.621	79.4999	72.4055	68.4238	66.8787	66.1384	67.4542	69.2729	71.2846	73.8421	75.8668	76.922	76.316	76.0162	72.8221	69.4281	64.1835	59.6681	54.6218	50.2496	46.2194	41.4603	36.8853	33.4741	29.6649	26.3736	24.4605	22.3763	19.5817	17.2482	15.1185	13.4449	11.8735	10.3406	9.3828	8.4959	7.2135	5.7796	4.6188	4.0379	3.5839	2.8568	1.9803	1.2323	0.3963	0.1795	0
502	92.3751	94.513	94.3388	96.8917	98.8378	94.2482	85.3158	76.245	71.395	67.9291	66.0961	64.7332	65.4707	66.3195	69.0499	71.4308	73.0007	74.9875	75.2664	73.3992	71.9142	67.6451	62.502	58.616	53.8262	49.7037	45.1011	40.1428	36.9434	32.6866	29.7975	26.5465	24.0225	21.9878	19.8237	17.5664	15.2126	13.5951	11.8512	10.4734	9.3847	8.6271	7.3155	6.2581	4.7741	4.105	3.7328	3.0644	2.3173	1.5468	0.4221	0.3248	0.243
504	97.42	87.7905	89.3133	92.339	96.2609	93.3526	83.8002	75.4711	70.6782	65.7482	63.5089	63.4936	64.1641	65.4184	65.6787	69.0431	71.8396	72.4305	72.651	71.8069	69.2789	65.6977	60.2331	55.4184	52.4284	48.589	44.1398	39.9351	35.4629	32.0564	29.3449	26.5132	23.7084	21.6276	19.6795	17.4544	15.3061	13.6389	11.8268	10.607	9.385	8.8249	7.7573	6.5421	5.2276	3.835	3.7408	3.3294	2.5256	1.9115	0.856	0.5566	0.4902
506	93.1484	81.0623	84.3045	90.7615	92.8408	88.6613	81.5456	73.6292	69.0523	64.9486	63.1955	63.2054	62.6908	63.073	65.9527	67.7195	68.8803	70.4552	69.3518	69.1488	66.7549	63.5975	59.5879	55.0232	51.3168	47.8985	44.0429	39.8526	35.1518	32.0899	28.9439	25.9996	23.8889	22.0389	19.5178	17.5993	15.4171	13.6436	11.9856	10.7539	9.4253	8.9398	7.6757	6.7602	5.757	4.3523	3.8552	3.3486	2.9337	2.171	1.3486	0.7932	0.7422
508	72.2447	74.3021	83.8806	88.0819	89.4511	87.8619	78.8854	73.6651	68.5199	64.7402	60.4731	60.1839	60.7793	60.9034	63.4397	65.7134	66.1824	68.184	68.381	66.8416	64.8752	61.434	57.3347	53.7029	50.0226	46.5004	42.3048	38.7363	34.7185	31.4814	28.2606	25.5857	23.4357	21.6217	19.6763	17.7814	15.5579	13.6619	12.1594	10.7986	9.4756	8.8632	7.6639	6.8906	5.9263	4.6266	3.7838	3.4936	3.0168	2.3897	1.5657	1.0352	1
510	71.1546	75.1339	80.7774	85.3301	85.976	84.1352	79.9955	69.8152	66.01	61.7808	61.246	60.0432	58.4993	59.3002	60.8658	62.4763	64.8981	64.905	65.5239	64.2863	62.7602	59.6472	55.8278	51.459	48.8301	45.511	42.3616	38.0286	34.5109	31.1585	27.9912	25.6511	23.1162	21.4611	19.2385	17.5042	15.5684	13.6776	12.2753	10.7835	9.525	8.4142	8.2081	7.1334	6.1525	5.0327	3.7586	3.7533	3.2044	2.7171	1.8883	1.3532	1.263
512	70.018	75.4795	77.587	81.9442	82.4052	82.2047	77.4866	70.4838	64.1952	61.73	58.0573	58.7048	57.3988	58.0395	58.653	61.2684	61.6206	63.0662	62.7471	62.4937	60.3489	57.2702	53.787	50.4274	47.6172	44.0418	41.3468	36.7566	33.2044	30.7562	27.6093	25.1245	22.889	21.006	19.11	17.6911	15.6218	13.689	12.2706	10.7644	9.5722	8.4422	8.1565	7.147	6.2871	5.2962	3.7653	3.5188	3.3598	2.9341	1.9403	1.5346	1.5311
514	68.8446	71.6298	74.3207	77.922	78.7511	79.0575	74.6031	69.3656	63.0884	60.3671	59.1567	57.4659	56.3562	57.4831	58.4628	58.9565	60.5532	61.3794	61.1193	60.0239	58.4667	56.0327	52.291	49.485	46.2335	43.3834	39.977	36.4597	31.9499	29.9106	27.4827	24.7527	22.4321	20.5091	18.8394	17.074	15.7247	13.8494	12.2632	10.8222	9.5699	8.469	8.0415	7.4521	6.2542	5.4174	4.2356	3.3292	3.3235	2.8862	2.3161	1.683	1.6792
516	67.6868	74.3667	71.0339	73.8684	75.1635	75.7467	72.493	66.0767	61.0796	59.0436	55.5625	55.3685	54.3347	54.9235	55.4345	56.4968	58.3361	59.5749	58.9899	58.1123	56.4324	54.4863	51.7674	48.0184	44.2503	42.3009	39.2284	35.8653	31.8424	28.9828	26.7125	23.9347	22.1864	21.0272	18.7313	17.0767	15.6656	13.8702	12.2626	10.8873	9.475	8.5012	8.0269	7.2984	6.7063	5.6365	4.7246	3.2505	3.2878	3.02	2.5799	2.0681	2.0634
518	66.5403	64.5208	67.7175	69.7739	71.9934	72.4084	69.9946	63.6331	59.8893	57.0057	53.9025	53.8438	53.6896	52.8627	54.0137	55.6298	55.4643	57.2742	57.212	55.9947	54.8492	52.6643	48.7062	46.1641	43.6448	41.2145	38.2114	34.8463	31.5712	28.8553	26.5584	23.6736	22.0622	20.4712	18.666	17.0664	15.5202	13.5078	12.2685	10.8597	9.3831	8.5386	7.7575	7.2398	6.718	5.8371	4.9231	3.2639	2.7708	3.1659	2.6492	2.1331	2.1282
520	65.3511	52.1381	62.9688	66.1661	68.7373	68.9808	68.6026	63.8868	58.4415	55.7894	53.9271	51.779	51.1024	52.079	51.6208	53.5817	53.7395	54.7014	55.4448	54.4327	52.6373	50.7432	48.0724	43.9762	42.987	40.3676	37.3667	33.8823	30.8277	28.0936	25.6332	23.3648	21.67	20.2414	18.8205	16.9032	14.972	14.0104	12.2714	10.7781	9.4285	8.5747	7.7844	7.3491	6.7713	5.7886	5.1635	3.3547	2.6164	3.2047	2.9001	2.3277	2.3224
522	64.1152	51.6453	63.7955	62.4626	65.1253	65.4598	66.8504	61.5186	56.7529	52.8419	52.6613	50.6867	49.3516	49.9782	50.8032	51.7524	53.3366	52.8742	53.1942	52.59	50.6235	49.1236	46.0508	43.6435	41.9246	39.7432	36.6349	33.5583	29.8076	27.9811	25.4217	22.9957	21.6477	19.588	17.9587	16.3822	15.1435	13.9245	11.9963	10.6914	9.472	8.5677	7.8096	7.4669	6.763	6.1003	5.3148	3.7859	2.0719	3.1404	2.7892	2.3752	2.3698
524	62.8371	51.1291	61.6926	58.6685	61.1555	61.8509	63.4755	57.7001	56.6873	53.0018	50.661	50.5163	48.8895	49.2887	48.4135	49.4151	50.8697	51.2147	50.2163	51.1526	49.6391	47.8467	44.9999	41.8385	40.5341	38.0831	35.3703	32.2529	29.8571	27.234	24.9138	22.6726	21.3228	18.7531	17.9201	16.453	15.123	13.6496	12.2913	10.6001	9.4934	8.5376	7.8334	7.2196	6.678	6.0998	5.4703	4.4095	2.329	2.5109	2.9647	2.5005	2.4948
526	61.5587	50.624	61.1717	54.8216	57.1306	60.0433	60.4541	57.9251	54.9307	51.0333	49.2588	48.1178	47.61	48.1282	47.1017	48.26	48.6027	49.3165	49.8194	49.3848	47.8649	45.1415	43.0863	41.4171	39.138	37.0335	35.1315	31.7443	28.8693	26.549	24.3831	21.9484	20.3217	18.9081	17.5012	15.9186	14.7714	13.7784	12.1602	10.5115	9.4771	8.5106	7.8612	7.1539	6.8971	5.9805	5.4584	4.5586	2.663	2.0863	2.8461	2.6896	2.6835
528	60.2761	50.1278	59.2334	50.913	57.1092	57.2694	57.3904	57.0452	53.3673	49.4498	47.711	47.3657	46.247	45.5767	46.0837	46.6149	47.6708	47.0518	47.7691	46.8301	46.3389	43.9958	41.1597	39.4989	37.9617	36.3386	34.0175	31.1511	27.8344	25.7698	23.7558	21.7621	20.2715	18.5652	17.2739	16.0784	14.5859	13.305	11.8856	10.3801	9.4642	8.5504	7.8423	7.0895	6.9415	6.0762	5.6512	4.7577	3.1384	1.767	2.6002	2.7737	2.7674
530	58.9459	49.6053	44.7785	52.9766	53.9612	54.4159	54.2407	55.1374	52.3408	48.6155	45.8888	47.0569	45.6433	44.1309	45.1337	44.9086	45.5073	46.4429	46.4426	45.0302	44.4758	43.6372	41.338	38.5556	36.6695	35.5708	33.1418	30.4669	27.3562	25.5886	23.3344	21.3867	19.798	18.3119	16.9357	15.3391	14.2293	13.1318	11.9409	10.6641	9.4484	8.5887	7.7185	7.0216	6.4483	6.3772	5.5639	4.9898	3.7518	1.6117	2.0528	2.9168	2.9102
532	57.577	49.0639	29.5914	51.8075	50.7354	51.2263	51.0133	52.303	49.2428	46.4072	46.0981	43.3866	44.0351	43.4107	43.709	43.7028	43.7796	44.1457	44.7243	43.9614	43.2106	41.8218	39.444	37.7023	35.6705	34.5051	32.0641	29.7532	27.0099	24.5487	22.8849	20.442	19.052	17.9802	16.6034	15.1896	14.3173	12.8801	11.8241	10.5151	9.4309	8.524	7.5908	6.9511	6.2901	5.9096	5.6235	4.9528	4.0344	1.7554	1.6002	2.5502	2.5444
534	56.1601	48.4958	33.3366	50.596	47.4235	47.684	47.6995	51.6482	47.6673	46.5398	45.376	43.4739	41.6537	42.1337	41.9207	42.2184	43.2139	42.8586	43.2074	42.7701	41.9321	39.7642	38.2083	36.7609	34.6502	33.5108	31.3243	28.876	26.2628	24.3306	22.3768	20.17	18.9758	17.3221	16.484	14.9575	13.948	12.9081	11.6746	10.3331	9.4103	8.4033	7.5258	6.877	6.2585	5.9726	5.5278	5.0866	4.4725	2.7752	0.9041	2.5146	2.5089
536	54.7236	47.9259	37.1864	50.5676	44.0485	44.0741	47.6868	49.1865	47.8066	45.189	43.5088	41.5222	40.1255	40.1697	41.1333	41.3149	41.3935	41.2803	41.6414	41.5876	40.6742	39.2528	37.5486	35.2328	33.9159	32.8472	30.4367	27.494	25.6838	23.5538	21.8557	19.7137	18.3028	17.3652	15.6216	14.8078	13.6421	12.56	11.5166	10.3106	8.9605	8.2817	7.4611	6.7803	6.2276	5.9785	5.738	5.135	4.0943	3.149	0.7843	1.8857	1.8814
538	53.2643	41.5258	41.1466	50.1955	40.6047	44.7676	45.1836	46.6773	45.5407	44.2027	42.4218	40.9685	39.9707	40.0057	39.4819	40.2388	40.2172	40.4194	40.6451	40.3173	39.1965	38.0252	36.0809	33.592	33.3446	31.6726	29.5855	27.4758	25.2744	23.3023	21.2193	19.606	18.5131	16.8458	15.8044	14.6193	13.4818	12.5896	11.3747	10.4622	9.0329	8.1588	7.3851	6.6713	6.1972	5.7888	5.7057	5.1113	4.33	3.585	1.0755	1.0015	0.9992
540	51.7529	45.9023	45.2003	44.4784	42.1108	42.0014	42.6067	44.0937	46.468	42.1783	40.9496	40.5506	38.6987	38.0781	38.3306	38.4956	38.7363	38.3069	38.5596	37.7129	37.5149	36.2433	34.1301	33.8433	32.6328	30.9329	29.3209	26.9299	24.6142	22.1717	20.8082	18.8004	17.8234	16.4339	15.5227	14.2162	13.2972	12.3637	11.2564	10.5805	9.1488	8.0304	7.2822	6.5575	6.1642	5.6873	5.4646	5.1679	4.5672	3.856	1.864	0.366	0.3652
542	50.3077	46.3138	41.7887	37.8506	43.0517	39.2497	39.9966	41.5335	44.6661	41.2935	39.2695	39.4486	37.8531	36.9366	37.0964	37.4015	37.286	38.6895	37.5474	37.7338	36.8317	35.0255	33.9448	32.3044	31.4776	29.7702	28.3166	26.6215	23.9662	21.9885	20.6369	18.5092	17.4921	16.5141	14.9942	14.3037	13.1076	12.1806	11.0752	10.1117	9.0977	7.7769	7.1913	6.5429	6.1381	5.5946	5.5543	5.0625	4.3696	3.8683	2.8518	0.0434	0.0433
544	58.1541	42.1513	27.4993	15.1053	42.1442	36.4049	37.2428	38.8844	42.2157	40.7379	38.7773	37.5471	37.1704	36.2281	35.6711	36.9491	35.6206	36.7968	36.3949	36.119	35.6491	34.6789	33.0118	30.9998	30.5455	29.3496	27.5339	25.7163	23.16	21.6348	19.92	17.8652	17.1552	15.9105	15.0719	13.7547	12.5433	11.736	10.9625	9.7385	9.0586	8.0213	7.0947	6.5251	6.0989	5.4969	5.267	5.0065	4.3689	3.8807	3.1223	0.6131	0.6117
546	61.1393	44.0982	28.5204	20.4885	41.465	33.449	34.3793	38.5395	39.8785	40.1759	38.4267	38.1378	35.176	35.1534	35.6416	35.168	35.1587	35.7765	35.1295	34.7153	33.9538	33.5747	31.8853	30.629	29.4524	28.8982	27.0014	24.5014	23.0645	20.8855	19.9831	17.7174	16.5694	15.6284	14.3563	13.6241	12.6151	11.4867	10.6665	9.9325	8.9387	8.1018	6.9886	6.4909	6.0527	5.3911	4.7589	4.9552	4.5201	3.8613	3.3183	1.2706	1.2677
548	56.9146	44.7184	28.9328	26.0099	39.6701	30.3881	36.2128	35.897	37.4453	38.715	36.6007	36.109	35.3679	33.8633	34.2695	33.0934	34.4697	35.087	34.2694	34.0507	33.515	32.5331	30.5295	29.6903	29.0609	27.6326	26.6593	24.5116	21.8106	20.5638	18.9525	17.7127	16.2214	15.4644	14.1174	12.8651	12.3415	11.4643	10.3524	9.5986	8.4781	7.9101	6.8734	6.4449	5.9491	5.2777	4.7199	4.8317	4.64	4.2136	3.3691	2.2545	2.2494
550	66.8359	45.3401	32.2227	31.679	40.0295	34.7252	33.4146	33.178	34.94	38.1784	35.089	33.6662	33.6841	32.9794	32.7856	33.9061	32.9938	33.0847	32.96	32.4143	31.9817	31.5355	29.8116	28.1433	27.4148	26.5569	25.3056	23.3778	21.8081	20.0285	18.5302	16.955	15.6427	14.529	13.5624	12.9868	12.1126	10.94	10.5784	9.3177	8.5501	8.1187	6.9707	6.3957	5.8409	5.1428	4.6785	4.8013	4.3423	4.0102	3.4675	2.7787	2.7724
552	61.3683	46.0934	38.6204	37.603	36.6472	31.7167	30.6247	30.587	32.4544	34.7635	34.4321	34.4023	32.6175	32.6404	32.7456	30.9543	31.1445	31.7947	31.8776	31.2144	31.0013	29.7824	29.0849	27.5373	26.5129	26.2696	24.8111	22.8609	20.8295	19.7365	18.1366	16.557	15.6792	14.6383	13.5042	12.9008	11.8331	10.8675	10.0782	9.5059	8.5159	7.6948	7.1933	6.361	5.7357	5.0082	4.6475	4.3449	4.3039	3.9999	3.3979	2.9326	2.9259
554	54.3356	46.8485	39.2356	32.7068	27.0799	31.2322	27.7383	28.0251	29.88	33.6415	33.0284	32.7866	31.3554	30.437	31.4647	30.8022	31.1361	30.9002	31.0071	29.9989	29.6965	29.4175	28.145	27.102	25.9479	24.7963	24.2404	21.5858	20.4033	19.3555	17.6595	15.9804	15.4654	14.0218	13.3194	12.4009	11.1811	10.6755	9.9185	9.1659	8.5025	7.5658	6.9905	6.3222	5.6072	4.8672	4.6134	4.1948	4.2161	4.1324	3.6466	3.098	3.0909
556	57.5299	51.3626	33.1965	17.8548	4.8193	34.3842	24.7649	25.3854	29.4789	31.8323	31.5247	31.873	30.3142	30.365	30.106	28.9722	29.9449	30.0552	30.0615	28.9764	28.9189	28.1145	27.218	26.4132	25.4004	24.4889	23.0027	21.6675	20.094	18.6589	16.9835	15.4697	14.7491	13.7843	12.6719	11.8263	11.3773	10.3058	9.6602	8.7319	8.1801	7.5283	6.7712	6.2093	5.4743	4.8371	4.5504	4.0398	4.1172	3.848	3.4938	3.1096	3.1025
558	59.3827	49.8376	32.049	17.0251	10.26	33.2765	21.701	25.6917	27.746	29.9655	31.47	30.9336	31.1705	29.4093	29.2423	28.7407	29.1749	28.8004	28.56	28.2761	27.719	27.4836	25.5957	25.2126	24.0835	23.8016	22.6881	21.0876	19.2487	18.0383	16.7499	15.3534	14.1957	13.0449	12.6406	11.8058	10.7848	10.1555	9.6307	8.8409	7.9854	7.3249	6.6058	6.229	5.3368	4.8057	4.4292	3.8797	3.7725	4.0128	3.5173	3.1164	3.1093
560	51.1949	50.9123	31.774	16.5842	15.8776	31.0765	22.7465	23.892	25.9478	28.0286	29.8468	30.7822	29.3278	28.2813	27.9777	27.2743	27.083	27.3739	28.2507	27.2283	27.0785	26.1043	24.3291	24.2864	23.6899	23.3427	21.6284	20.3277	18.6526	17.1251	16.3462	14.9665	14.2504	12.9758	12.2498	11.5475	10.6016	10.4147	9.0578	8.5782	7.7917	7.6978	6.6316	6.0817	5.1925	4.7153	4.3021	3.7127	3.0911	4.0628	3.6165	3.1941	3.1868
562	54.9758	46.5115	31.4747	19.4797	21.6724	31.3248	26.419	22.0272	24.026	26.0206	28.664	28.8854	28.4865	27.3303	27.0695	27.1531	26.9264	26.9535	26.629	26.8698	26.5433	25.1547	24.0569	23.4849	22.557	22.2264	21.2994	19.3846	18.0071	16.8125	16.0741	14.3873	13.6301	12.7942	11.8626	11.3419	10.3568	9.8927	8.9957	8.2932	7.9356	7.0711	6.5773	5.9601	5.0412	4.5914	4.1382	3.5389	3.1375	3.5888	3.3698	3.2011	3.1938
564	47.5851	47.5001	31.1526	25.874	27.6462	28.9644	25.8892	20.0987	21.9796	23.9431	27.7644	26.8328	26.8175	25.1681	26.0131	25.7128	25.6365	25.5955	25.6611	25.3384	24.9984	24.1128	23.0743	22.1746	22.0439	21.5281	20.1028	18.8047	17.6816	15.939	14.8256	14.1443	13.2613	12.351	11.793	10.8573	10.3439	9.2908	8.7904	8.0485	7.3725	6.9751	6.532	6.1617	5.4029	4.4618	3.9676	3.4508	3.1839	3.407	3.5351	3.1242	3.117
566	53.4548	45.6394	30.8266	26.1433	22.0979	18.4905	25.61	18.1178	19.8778	25.348	26.2344	27.0502	25.3978	24.869	24.4452	23.9745	24.9015	24.1103	24.4204	24.109	24.356	23.1699	22.8793	21.952	21.0565	20.3676	19.5164	18.4176	16.1847	15.5679	14.6778	13.3976	12.6361	11.9653	11.278	10.4982	9.9871	9.0712	8.5991	7.7654	7.3416	6.6438	6.2681	5.8388	5.126	4.3292	3.8393	3.4076	3.2323	3.1727	3.2017	3.1708	3.1635
568	50.1869	52.581	40.4992	25.7286	13.1555	2.3761	26.7262	16.0804	23.5199	23.218	24.6623	26.3965	25.0683	24.4333	24.5201	24.233	23.7178	23.6031	24.0827	23.7855	23.2395	22.8156	21.689	21.2575	20.4841	19.9739	18.8017	17.8398	16.8156	15.1558	14.0132	13.416	12.2462	11.5524	11.1701	10.2496	9.6513	8.9328	8.3147	7.6921	7.1173	6.7044	6.2064	5.7709	5.1017	4.1931	3.8025	3.3636	3.2827	3.0791	3.3362	3.1483	3.1411
570	51.4474	46.357	37.1072	23.9054	12.6582	8.1031	28.325	21.9685	21.3803	21.0131	23.031	25.1944	24.6672	24.2122	23.316	23.1111	23.3307	23.6299	22.787	22.7457	22.684	21.5749	21.4102	20.5433	19.8847	19.0999	18.4125	17.0018	15.9553	14.9384	13.796	12.8703	11.774	10.8852	10.7049	9.7846	8.9993	9.0138	8.3285	7.5851	6.8061	6.4272	5.9733	5.536	5.2225	4.6355	3.7628	3.4152	3.3128	2.9811	3.0549	3.147	3.1398
572	42.4857	42.5951	40.8489	25.0298	13.5311	14.0462	28.244	23.4865	19.2087	19.0981	21.3862	23.8825	23.1818	22.5816	22.485	22.5577	22.027	22.741	22.6325	22.2193	21.4613	21.3994	20.3929	19.7789	19.0252	18.5412	17.8118	16.63	15.7387	14.2665	13.3278	12.1752	11.705	11.1453	10.1319	9.5873	9.0331	8.3776	8.1686	7.3212	6.8309	5.8962	5.7699	5.5946	5.3703	4.55	3.728	3.4742	3.3084	2.8848	2.7934	2.9025	2.8959
574	41.3048	41.175	40.9062	26.1788	17.2946	20.2019	28.9418	22.7823	16.9535	17.4377	19.6737	22.6982	22.4947	22.1597	22.7854	21.0703	21.4072	21.4139	21.2662	21.1853	21.1252	19.9305	19.7175	18.9313	18.4593	17.4809	17.339	15.7004	15.1951	13.9797	13.047	11.8709	11.625	10.5547	9.7665	9.4296	8.7283	8.2759	7.8661	7.2321	6.5998	6.2866	5.8585	5.5025	5.0883	4.6699	3.6899	3.4913	3.302	2.7836	2.2547	2.8533	2.8468
576	44.1937	38.0375	38.6426	27.3521	24.1065	26.5716	29.1665	26.5286	14.6147	15.7124	21.3628	21.5709	20.9898	20.9762	21.1064	20.4642	20.8247	20.3805	21.2131	20.6254	20.1263	19.5601	18.6519	18.0659	17.5884	17.251	16.7366	15.7976	14.3969	13.4198	12.4167	12.0116	10.623	10.5057	9.7277	9.1339	8.5744	8.3278	7.5416	6.9506	6.396	5.7565	5.6707	5.4254	4.941	4.2676	3.6483	3.4856	3.2048	2.6774	2.229	2.8283	2.8219
578	43.3636	33.65	36.1159	28.5496	25.2824	22.315	20.1001	26.4233	12.1928	20.1131	19.1953	20.3947	20.0265	20.239	20.0887	20.3921	19.7396	19.9913	20.2558	19.3834	19.0437	19.2444	18.2637	17.4051	17.134	16.8922	15.9785	15.455	14.2349	13.1879	12.6267	11.4718	10.5459	10.0516	9.4076	9.0053	8.1451	7.7413	7.6128	7.1419	6.1672	5.893	5.5444	5.1783	4.6912	4.4115	4.0085	3.4778	3.1026	2.6032	2.2012	2.5955	2.5896
580	38.7625	28.7708	31.8834	30.7854	22.1259	14.5971	8.2918	30.0605	19.2901	17.9903	16.9492	19.1701	20.2882	19.3143	19.3182	19.6737	19.5046	18.9561	18.9607	18.7636	19.2745	18.1317	17.2982	17.3705	16.9169	16.472	15.6076	14.6654	13.6693	13.3084	11.9442	10.9843	10.486	9.8645	9.261	8.6706	7.8828	7.5632	7.3133	6.5988	6.0929	5.9166	5.3757	5.2208	4.6551	4.1798	3.7973	3.468	3.0142	2.5441	2.1714	2.2871	2.2819
582	34.6437	25.7267	26.1574	29.3827	21.543	14.714	12.4977	28.547	18.5243	15.7971	15.1729	17.9023	20.4509	18.9871	18.6556	18.4667	18.7018	18.9491	18.4582	18.4409	18.0732	17.7038	17.0976	16.7644	15.8397	16.0068	15.3526	14.6794	12.9871	12.4644	11.6503	10.4706	10.1821	9.2274	8.9004	8.5839	7.8448	7.298	7.0252	6.4462	5.6854	5.6103	4.9968	5.0774	4.6951	4.1186	3.7699	3.457	2.9605	2.4825	2.1401	1.7998	1.7957
584	30.5724	27.8659	24.2246	29.534	22.5792	15.5862	16.8408	28.5376	20.5256	13.5274	13.8855	16.5853	18.8056	18.8007	18.4471	18.3712	17.9713	17.9669	17.8345	17.7411	17.2993	17.2949	16.8052	16.1603	15.6469	15.1457	14.3713	13.9501	13.2139	11.9549	10.9141	10.1942	9.802	9.51	8.6778	8.3782	7.42	6.9629	6.6782	6.3063	5.7803	5.2475	5.1825	4.7443	4.3584	4.1892	3.8226	3.271	2.9035	2.4545	2.1067	1.5631	1.0123
586	29.5063	22.676	27.4404	23.2436	23.6338	18.3824	21.3185	30.9548	22.5223	11.1797	12.5491	16.7113	17.5041	17.5345	17.7182	17.6109	17.6418	17.8914	18.0765	17.0549	16.4882	16.6664	16.0115	15.2138	15.3175	14.6514	14.3725	13.1232	12.5205	11.9509	10.665	10.0393	9.4958	8.6811	8.1647	7.8137	7.4969	7.0594	6.4869	6.0484	5.7608	5.522	4.8757	4.9044	4.4418	4.0544	3.8413	3.4291	2.8428	2.424	2.0688	1.3179	0.1662
588	20.4734	26.511	26.7191	25.8827	24.7063	23.1956	25.9296	29.2009	23.2794	8.7556	14.371	14.7826	16.1525	16.1586	17.2369	17.0248	16.6036	16.6972	16.5901	16.2922	16.3875	16.0723	14.6805	14.8067	14.7718	14.5131	13.7888	13.1535	12.0906	11.2539	10.5062	9.8723	9.3361	8.7738	8.307	7.7908	7.0483	6.8356	6.2287	5.8321	5.5673	5.2827	4.8084	4.7352	4.3878	3.9619	3.83	3.4557	2.7784	2.39	2.0273	1.0643	0
590	32.734	23.4832	25.0934	26.3551	25.8005	25.0993	24.905	25.4472	24.4322	12.1756	12.4719	12.791	14.7539	16.1411	16.2703	16.0291	16.4773	15.9296	16.3346	15.9222	15.6319	15.4142	14.5998	14.9024	14.3785	13.7299	13.3009	12.2216	11.6213	11.0355	10.3332	9.4534	8.6929	8.4376	7.5855	7.2984	7.0979	6.7769	5.923	5.7974	5.5037	5.0415	4.6203	4.3957	4.223	3.7469	3.7296	3.2923	2.7109	2.3517	1.8819	0.8027	0
592	29.0029	25.786	27.8024	25.6265	27.2321	21.9689	17.752	14.39	22.7762	15.8961	10.5508	11.0886	13.3565	15.4208	15.719	15.4553	15.7563	15.4774	16.2916	14.9344	15.3345	15.1057	14.2197	14.1809	13.658	13.482	12.9692	12.7027	11.2299	10.8043	9.9458	9.1582	8.6647	7.8571	7.7564	7.2596	6.7456	6.5582	5.944	5.5464	5.2132	4.8996	4.622	4.4429	3.9911	3.8516	3.4825	2.9767	2.9761	2.3197	1.6339	0.7413	0
594	37.5175	21.2518	23.7299	26.4663	31.2746	24.4598	18.6198	17.07	27.1294	14.1793	8.5544	9.6366	11.9003	15.1118	15.1194	16.0866	15.2645	15.5197	15.3301	14.7678	14.724	14.8993	13.9334	13.4497	13.4058	12.7356	12.2495	11.9309	10.5603	9.7585	9.814	9.0007	8.2528	7.9168	7.2962	7.2399	6.4103	6.2084	5.8842	5.4229	5.08	4.8542	4.4704	4.2109	3.9806	3.6791	3.3622	3.3874	2.8422	2.2849	1.4782	0	0
596	29.0736	23.528	21.4913	25.8479	31.559	23.9549	20.709	19.8471	27.5386	16.2289	6.4857	8.1309	12.5349	14.2358	14.6147	14.8869	14.6731	14.9565	14.6	15.1179	13.86	13.8923	13.3111	12.9618	13.0126	12.9702	12.2255	11.5726	10.7685	10.0041	9.2813	8.3868	8.3891	7.8012	7.4327	6.9394	6.3407	6.0785	5.7312	5.0978	5.0136	4.5471	4.4105	3.9158	3.849	3.5711	3.4387	2.9147	2.7986	2.2485	1.5356	0	0
598	31.0469	21.5113	17.4325	25.5386	30.7067	25.4402	23.6692	22.725	28.0295	14.9965	4.3421	9.6967	11.6005	13.325	13.7145	14.1967	14.5929	13.6111	14.5399	13.7202	13.7523	13.4194	13.0435	12.1934	12.5347	11.7723	11.6058	10.9944	9.9669	9.7083	9.2429	8.3703	8.146	7.3605	7.0603	6.6865	6.5604	5.7661	5.7818	4.9316	5.0407	4.4457	4.3766	4.0078	3.948	3.2193	3.3738	3.0702	2.6053	2.3098	0	0	0
600	26.4064	19.5312	21.2088	21.4628	31.4827	28.6858	26.7256	25.6964	25.675	16.5322	6.7702	8.7185	10.6251	12.3729	14.1247	13.3371	13.9272	14.0686	13.1545	13.6102	13.4974	12.9502	12.7084	12.3915	12.081	11.1988	11.3071	10.9312	9.8718	9.1723	9.0297	8.1528	7.7445	7.2501	6.9133	6.4194	5.9824	5.6933	5.4082	5.0521	4.7631	4.4959	4.0336	4.0358	3.9776	3.45	3.2532	2.9813	2.7018	2.3883	0	0	0
