Description	ECS-B (clean blank)																																																				
EEM type	"Dilution- & Scatter-corrected, Calibrated Data (ppb QSE)"																																																				
Scan date	10/12/2010 10:21																																																				
Excitation	240-500nm by 5nm																																																				
Emission	290-600nm by 2nm																																																				
Calibration	Michael_Fluoromax4_April08 (07-Apr-2008)																																																				
Slit settings	"5nm Excitation, 5nm Emission"																																																				
Dilution	3																																																				
Row 1	Excitation(nm)																																																				
Col 1	Emission(nm)																																																				
Data	Fluorescence(ppb QSE)																																																				
																																																					
	240	245	250	255	260	265	270	275	280	285	290	295	300	305	310	315	320	325	330	335	340	345	350	355	360	365	370	375	380	385	390	395	400	405	410	415	420	425	430	435	440	445	450	455	460	465	470	475	480	485	490	495	500
290	0	0	0	0	0	0	0	0	0	0	0	0	0	0	0	0	0	0	0	0	0	0	0	0	0	0	0	0	0	0	0	0	0	0	0	0	0	0	0	0	0	0	0	0	0	0	0	0	0	0	0	0	0
292	0	0	0	0	0	0	0	0.3032	0	0	0	0	0	0	0	0	0	0	0	0	0	0	0	0	0	0	0	0	0	0	0	0	0	0	0	0	0	0	0	0	0	0	0	0	0	0	0	0	0	0	0	0	0
294	0	0	0	0	0	0	0	0.5997	0	0	0	0	0	0	0	0	0	0	0	0	0	0	0	0	0	0	0	0	0	0	0	0	0	0	0	0	0	0	0	0	0	0	0	0	0	0	0	0	0	0	0	0	0
296	0	0	0	0	0	0	0.9117	0.8885	0	0	0	0	0	0	0	0	0	0	0	0	0	0	0	0	0	0	0	0	0	0	0	0	0	0	0	0	0	0	0	0	0	0	0	0	0	0	0	0	0	0	0	0	0
298	0	0	0	0	0	0	1.7987	1.1684	0.4576	0	0	0	0	0	0	0	0	0	0	0	0	0	0	0	0	0	0	0	0	0	0	0	0	0	0	0	0	0	0	0	0	0	0	0	0	0	0	0	0	0	0	0	0
300	0	0	0	0	0	0.9385	2.3651	1.4401	0.9025	0	0	0	0	0	0	0	0	0	0	0	0	0	0	0	0	0	0	0	0	0	0	0	0	0	0	0	0	0	0	0	0	0	0	0	0	0	0	0	0	0	0	0	0
302	0	0	0	0	0	1.8808	2.6653	2.2053	1.3562	0	0	0	0	0	0	0	0	0	0	0	0	0	0	0	0	0	0	0	0	0	0	0	0	0	0	0	0	0	0	0	0	0	0	0	0	0	0	0	0	0	0	0	0
304	0	0	0	0	0	2.8269	2.9666	2.9735	1.8115	0.6409	0	0	0	0	0	0	0	0	0	0	0	0	0	0	0	0	0	0	0	0	0	0	0	0	0	0	0	0	0	0	0	0	0	0	0	0	0	0	0	0	0	0	0
306	0	0	0	0	0.4397	3.7749	3.7558	3.584	2.2673	1.2835	0	0	0	0	0	0	0	0	0	0	0	0	0	0	0	0	0	0	0	0	0	0	0	0	0	0	0	0	0	0	0	0	0	0	0	0	0	0	0	0	0	0	0
308	0.4675	0	0	0	1.6457	4.7234	4.545	4.0352	3.2438	1.9268	0	0	0	0	0	0	0	0	0	0	0	0	0	0	0	0	0	0	0	0	0	0	0	0	0	0	0	0	0	0	0	0	0	0	0	0	0	0	0	0	0	0	0
310	0	0	0	0	2.1073	4.4489	5.3357	4.4871	4.2224	2.5714	0.7558	0	0	0	0	0	0	0	0	0	0	0	0	0	0	0	0	0	0	0	0	0	0	0	0	0	0	0	0	0	0	0	0	0	0	0	0	0	0	0	0	0	0
312	0	0	0	0	2.3451	5.3381	6.0909	5.4228	4.9984	3.1976	1.5038	0	0	0	0	0	0	0	0	0	0	0	0	0	0	0	0	0	0	0	0	0	0	0	0	0	0	0	0	0	0	0	0	0	0	0	0	0	0	0	0	0	0
314	0	0	0	0.5882	2.6862	5.9866	6.838	6.3488	5.594	4.0584	2.2441	0	0	0	0	0	0	0	0	0	0	0	0	0	0	0	0	0	0	0	0	0	0	0	0	0	0	0	0	0	0	0	0	0	0	0	0	0	0	0	0	0	0
316	0	0.0131	0.6629	2.472	3.9321	5.8476	7.8572	7.2409	6.1625	4.8939	2.9668	0.8054	0	0	0	0	0	0	0	0	0	0	0	0	0	0	0	0	0	0	0	0	0	0	0	0	0	0	0	0	0	0	0	0	0	0	0	0	0	0	0	0	0
318	1.146	0	2.1024	2.5437	4.7068	6.5354	8.7254	8.0896	6.9289	5.6165	3.6645	1.5918	0	0	0	0	0	0	0	0	0	0	0	0	0	0	0	0	0	0	0	0	0	0	0	0	0	0	0	0	0	0	0	0	0	0	0	0	0	0	0	0	0
320	3.2592	1.4571	1.4069	3.3099	5.3579	7.8194	8.9265	8.9158	7.675	6.2424	4.4285	2.359	0	0	0	0	0	0	0	0	0	0	0	0	0	0	0	0	0	0	0	0	0	0	0	0	0	0	0	0	0	0	0	0	0	0	0	0	0	0	0	0	0
322	4.0012	0.7861	1.143	5.4312	6.36	8.2535	9.4967	9.2258	8.3618	6.8195	5.1488	3.0926	0.7685	0	0	0	0	0	0	0	0	0	0	0	0	0	0	0	0	0	0	0	0	0	0	0	0	0	0	0	0	0	0	0	0	0	0	0	0	0	0	0	0
324	3.8311	3.2743	3.9692	6.263	6.9033	8.7159	9.8905	9.6691	9.0205	7.4509	5.8148	3.7999	1.5108	0	0	0	0	0	0	0	0	0	0	0	0	0	0	0	0	0	0	0	0	0	0	0	0	0	0	0	0	0	0	0	0	0	0	0	0	0	0	0	0
326	7.5758	3.1625	4.52	5.4861	7.9952	8.9317	10.3193	11.0527	9.647	8.0526	6.425	4.4103	2.2259	0	0	0	0	0	0	0	0	0	0	0	0	0	0	0	0	0	0	0	0	0	0	0	0	0	0	0	0	0	0	0	0	0	0	0	0	0	0	0	0
328	6.9249	5.0307	4.512	6.1523	8.4249	9.5988	10.837	10.5511	10.0818	8.6236	7.006	4.9938	2.9128	0.7625	0	0	0	0	0	0	0	0	0	0	0	0	0	0	0	0	0	0	0	0	0	0	0	0	0	0	0	0	0	0	0	0	0	0	0	0	0	0	0
330	6.4919	6.8594	5.3658	7.2138	8.7721	9.786	10.9306	11.1957	10.7261	9.167	7.4972	5.5739	3.572	1.4962	0	0	0	0	0	0	0	0	0	0	0	0	0	0	0	0	0	0	0	0	0	0	0	0	0	0	0	0	0	0	0	0	0	0	0	0	0	0	0
332	9.7498	6.7024	7.3126	8.9715	9.0927	10.2603	10.748	12.0499	10.9056	9.5788	7.8785	6.0832	4.2465	2.1774	0	0	0	0	0	0	0	0	0	0	0	0	0	0	0	0	0	0	0	0	0	0	0	0	0	0	0	0	0	0	0	0	0	0	0	0	0	0	0
334	8.9867	8.158	8.1232	8.2385	9.8508	11.215	10.4911	11.6685	11.424	9.9307	8.2222	6.5507	4.8727	2.8138	0.8431	0	0	0	0	0	0	0	0	0	0	0	0	0	0	0	0	0	0	0	0	0	0	0	0	0	0	0	0	0	0	0	0	0	0	0	0	0	0
336	10.3661	9.0542	8.2084	9.6056	10.3267	11.14	11.0685	11.3804	11.7179	10.9003	8.537	7.0642	5.4287	3.409	1.6344	0	0	0	0	0	0	0	0	0	0	0	0	0	0	0	0	0	0	0	0	0	0	0	0	0	0	0	0	0	0	0	0	0	0	0	0	0	0
338	12.0559	9.3602	9.5743	9.1704	10.7083	12.1408	11.2288	11.6033	11.6548	10.8608	8.8246	7.5398	5.9191	4.2075	2.3764	0.3599	0	0	0	0	0	0	0	0	0	0	0	0	0	0	0	0	0	0	0	0	0	0	0	0	0	0	0	0	0	0	0	0	0	0	0	0	0
340	12.1722	10.1346	10.2672	10.6431	10.9445	11.74	11.5572	12.139	12.2662	10.9242	9.6621	7.971	6.3675	4.9486	3.068	1.3523	0.0554	0	0	0	0	0	0	0	0	0	0	0	0	0	0	0	0	0	0	0	0	0	0	0	0	0	0	0	0	0	0	0	0	0	0	0	0
342	14.8242	11.0474	10.4672	11.0349	10.9623	11.8313	12.5992	12.0591	12.3158	11.294	10.0552	8.4035	7.0385	5.6092	3.7294	2.2914	0.569	0	0	0	0	0	0	0	0	0	0	0	0	0	0	0	0	0	0	0	0	0	0	0	0	0	0	0	0	0	0	0	0	0	0	0	0
344	15.9949	11.807	11.3295	11.6906	12.4179	11.6076	13.3937	12.3687	12.1781	12.0628	10.3917	8.7988	7.6613	6.1723	4.668	3.1754	1.5159	0.5605	0	0	0	0	0	0	0	0	0	0	0	0	0	0	0	0	0	0	0	0	0	0	0	0	0	0	0	0	0	0	0	0	0	0	0
346	15.7369	12.9244	13.656	12.6205	12.4255	12.601	13.0281	13.2255	13.1633	12.354	10.9183	9.3049	8.2576	6.7106	5.5603	4.0146	2.3972	0.7765	0	0	0	0	0	0	0	0	0	0	0	0	0	0	0	0	0	0	0	0	0	0	0	0	0	0	0	0	0	0	0	0	0	0	0
348	19.065	14.7647	13.7909	12.9589	12.5095	12.9319	13.3448	13.08	13.2529	12.8255	11.8737	10.5736	8.8335	7.5323	6.3672	4.8163	3.2368	1.7944	0.6402	0	0	0	0	0	0	0	0	0	0	0	0	0	0	0	0	0	0	0	0	0	0	0	0	0	0	0	0	0	0	0	0	0	0
350	18.6397	17.1119	14.143	13.3214	13.2503	14.0357	14.3755	13.4229	13.6356	13.2447	12.1155	10.9754	9.3696	8.3037	7.0802	5.57	4.0308	2.6528	1.2175	0.1654	0	0	0	0	0	0	0	0	0	0	0	0	0	0	0	0	0	0	0	0	0	0	0	0	0	0	0	0	0	0	0	0	0
352	20.9708	17.4079	15.9613	14.2895	14.1912	13.8984	14.476	13.9236	13.8572	13.6126	13.107	11.9573	10.5621	9.0266	7.7491	6.2792	4.7802	3.2826	2.1399	0.688	0	0	0	0	0	0	0	0	0	0	0	0	0	0	0	0	0	0	0	0	0	0	0	0	0	0	0	0	0	0	0	0	0
354	21.5557	17.5805	16.3068	15.7448	15.4682	15.3114	15.2303	14.7899	14.7287	14.018	13.4502	12.5086	11.187	9.6994	8.3704	6.943	5.6611	4.3474	2.873	1.48	0.2141	0	0	0	0	0	0	0	0	0	0	0	0	0	0	0	0	0	0	0	0	0	0	0	0	0	0	0	0	0	0	0	0
356	22.5803	20.7343	16.6799	16.3036	15.454	14.8758	15.6851	15.7862	14.685	14.7641	14.055	13.3213	12.3992	10.3577	9.1495	7.9331	6.7145	5.368	3.6395	2.0571	0.8119	0	0	0	0	0	0	0	0	0	0	0	0	0	0	0	0	0	0	0	0	0	0	0	0	0	0	0	0	0	0	0	0
358	23.3316	21.125	18.825	16.7213	16.7212	16.0147	16.006	15.5322	16.0202	14.8172	14.6213	14.1618	13.07	11.7351	10.0838	8.8977	7.7999	6.3559	4.7532	2.9745	1.8412	0	0	0	0	0	0	0	0	0	0	0	0	0	0	0	0	0	0	0	0	0	0	0	0	0	0	0	0	0	0	0	0
360	25.5289	23.9953	19.367	18.9391	18.2409	16.939	16.3427	16.437	16.4313	15.992	15.6243	14.971	14.0135	12.4982	10.9693	9.8751	8.8324	7.2963	5.7689	3.8963	2.3152	0.895	0	0	0	0	0	0	0	0	0	0	0	0	0	0	0	0	0	0	0	0	0	0	0	0	0	0	0	0	0	0	0
362	28.1887	23.8877	22.122	19.7661	18.2661	18.1048	17.6648	16.6563	16.9791	16.8092	16.0414	15.7822	14.9959	13.8383	11.8896	10.9078	9.7588	8.3306	6.783	4.8362	2.995	1.6433	0	0.0178	0.0206	0	0	0	0	0	0	0	0	0	0	0	0	0	0	0	0	0	0	0	0	0	0	0	0	0	0	0	0
364	28.3858	26.2775	23.9256	20.2445	20.673	18.6685	18.7275	17.5002	17.5527	17.3036	17.6352	16.4763	16.012	14.5549	13.3523	11.9041	10.6524	9.4944	7.7633	5.8379	3.8762	2.3867	0.6859	0.0527	0.0405	0	0	0	0	0	0	0	0	0	0	0	0	0	0	0	0	0	0	0	0	0	0	0	0	0	0	0	0
366	32.8164	27.9354	25.5258	22.6912	20.6654	20.6245	19.0125	18.3886	18.5338	18.6282	18.185	17.8465	16.8678	15.7958	14.7124	12.8745	11.6851	10.6268	8.7169	6.7753	4.7588	2.9175	1.6133	0.0865	0.0598	0	0	0	0	0	0	0	0	0	0	0	0	0	0	0	0	0	0	0	0	0	0	0	0	0	0	0	0
368	33.7684	30.3225	26.7397	24.0678	22.377	21.1635	19.898	19.5219	19.3457	19.1456	18.9972	18.8316	18.1494	17.0985	15.7968	13.822	12.7726	11.5344	9.634	7.6883	5.6029	3.5516	2.0638	0.1193	0.0393	0	0	0	0	0	0	0	0	0	0	0	0	0	0	0	0	0	0	0	0	0	0	0	0	0	0	0	0
370	34.8011	32.9654	27.9645	25.2601	23.7549	22.274	20.9648	19.433	20.108	19.9774	19.9274	19.4798	18.9432	18.3143	17.0764	15.3566	13.8239	12.4113	10.4967	8.5721	6.6394	4.5064	2.6813	1.1506	0.0194	0	0	0	0	0	0	0	0	0	0	0	0	0	0	0	0	0	0	0	0	0	0	0	0	0	0	0	0
372	38.4665	34.9255	30.8593	27.6495	24.5806	22.2424	21.2116	21.2693	21.4052	21.4019	20.7747	21.1025	20.552	19.6562	18.4586	16.7252	14.9154	13.3015	11.3882	9.7191	7.7141	5.3817	3.5101	1.8742	0	0.0521	0.0609	0	0	0	0	0	0	0	0	0	0	0	0	0	0	0	0	0	0	0	0	0	0	0	0	0	0
374	40.967	35.9901	30.6923	28.3333	26.7505	23.949	23.1114	22.3151	22.4764	22.34	22.3989	21.769	21.6041	20.9531	19.7913	18.3726	15.9833	14.4051	12.7476	11.0843	8.7668	6.2512	4.1706	2.3625	0.7263	0.1546	0.1205	0	0	0	0	0	0	0	0	0	0	0	0	0	0	0	0	0	0	0	0	0	0	0	0	0	0
376	43.0624	38.2979	33.1439	30.3613	28.6342	25.2954	23.9596	23.6803	23.043	23.4786	23.2989	23.3031	22.8457	22.4823	21.1149	19.4541	17.6109	15.7137	14.0664	12.153	9.789	7.3576	4.8897	3.041	1.4226	0.2549	0.1787	0	0	0	0	0	0	0	0	0	0	0	0	0	0	0	0	0	0	0	0	0	0	0	0	0	0
378	45.4409	40.884	36.1997	31.1238	29.0275	27.0577	25.7793	24.5108	24.5671	24.6832	24.0451	24.721	24.3374	24.2947	22.3814	20.987	18.8142	16.9761	15.3408	13.1846	10.7777	8.4	5.9542	3.687	2.156	0.3526	0.1177	0	0	0	0	0	0	0	0	0	0	0	0	0	0	0	0	0	0	0	0	0	0	0	0	0	0
380	49.2978	41.8512	38.4985	34.1303	30.4804	28.2231	26.7147	25.6825	25.3992	25.6191	25.5476	25.7186	25.635	25.0759	23.8464	21.9082	20.2656	18.2046	16.3275	14.1605	11.7404	9.4159	7.0671	4.5687	2.7932	1.2221	0.0582	0	0	0	0	0	0	0	0	0	0	0	0	0	0	0	0	0	0	0	0	0	0	0	0	0	0
382	48.6956	46.1285	40.2679	34.8714	32.4195	29.1411	28.216	26.9399	26.6509	26.0078	26.9538	26.8866	27.294	26.6137	25.2297	23.8528	22.0861	19.4882	17.3655	15.1507	12.9217	10.4528	7.777	5.3842	3.461	2.047	0	0.0794	0.0928	0	0	0	0	0	0	0	0	0	0	0	0	0	0	0	0	0	0	0	0	0	0	0	0
384	52.6442	47.3087	41.9171	37.5052	33.2636	31.8029	28.8209	27.6024	27.7832	27.6058	27.7031	28.2385	28.111	27.73	26.7568	25.0602	23.125	20.906	18.386	16.1244	14.0842	11.4731	8.7227	6.4211	4.1483	2.572	0.9201	0.2362	0.1841	0	0	0	0	0	0	0	0	0	0	0	0	0	0	0	0	0	0	0	0	0	0	0	0
386	52.7051	48.3332	43.2995	38.4824	35.0994	33.0953	30.0239	28.7928	27.9476	28.0961	29.1918	29.5024	29.5171	28.7563	27.9806	26.557	24.5062	22.603	19.462	17.3331	15.2148	12.5236	9.6893	7.279	5.0641	3.2007	1.6446	0.392	0.275	0.0309	0	0	0	0	0	0	0	0	0	0	0	0	0	0	0	0	0	0	0	0	0	0	0
388	57.3422	50.8529	43.327	41.8607	37.0936	33.4758	31.395	29.9662	29.5534	29.1179	30.0704	30.445	31.1811	30.0709	29.2012	27.9557	25.6631	23.5564	20.6064	18.6018	16.3276	13.5516	10.688	8.3556	5.8941	3.9298	2.2887	0.5485	0.2546	0.0617	0	0	0	0	0	0	0	0	0	0	0	0	0	0	0	0	0	0	0	0	0	0	0
390	60.0229	53.7503	47.0851	42.5201	39.241	35.1051	32.8582	31.2989	30.309	31.1286	30.903	31.8153	32.0953	31.7371	30.977	28.9951	27.2188	25.4703	22.411	19.8706	17.4402	14.5794	11.6866	8.99	7.0605	4.6167	2.8879	1.3899	0.2343	0.0925	0	0	0	0	0	0	0	0	0	0	0	0	0	0	0	0	0	0	0	0	0	0	0
392	64.5741	54.9609	48.754	44.5259	40.2763	36.3214	34.0021	32.1252	31.7048	31.7667	32.0526	32.7022	33.4644	33.0448	32.1645	30.7915	29.0112	26.5068	23.9525	21.0124	18.3754	15.5134	12.7666	10.1162	7.7935	5.383	3.5317	1.9346	0.2126	0.2012	0.1285	0	0	0	0	0	0	0	0	0	0	0	0	0	0	0	0	0	0	0	0	0	0
394	64.4572	58.0693	50.7824	45.0138	42.0841	38.2706	34.7558	33.4911	32.2826	32.269	32.7126	34.2733	34.7329	34.4757	33.7356	32.1925	30.2205	28.0201	25.2632	22.1387	19.4623	16.7576	13.9893	11.228	8.7981	6.2689	4.2679	2.5964	1.0187	0.3868	0.2553	0	0	0	0	0	0	0	0	0	0	0	0	0	0	0	0	0	0	0	0	0	0
396	62.7133	60.3914	52.027	47.8791	43.3893	39.1714	35.7294	34.3132	33.2089	33.6809	33.9762	35.1054	35.6589	36.2102	34.8447	33.5487	31.4661	29.3524	26.9352	23.6736	20.7303	18.0135	15.2203	12.3446	9.6124	7.2604	5.0521	3.3419	1.7022	0.5708	0.381	0.0476	0	0	0	0	0	0	0	0	0	0	0	0	0	0	0	0	0	0	0	0	0
398	68.3309	63.3429	57.4133	50.6333	45.3147	40.2061	37.578	35.7148	34.3862	34.7065	35.4383	36.192	36.9405	37.2703	36.7117	34.9963	33.4829	31.2327	28.2844	25.3026	22.0205	19.288	16.4652	13.4715	10.8131	8.437	6.059	3.8802	2.427	0.7541	0.3639	0.095	0	0	0	0	0	0	0	0	0	0	0	0	0	0	0	0	0	0	0	0	0
400	69.8905	67.3251	58.0119	52.6877	47.7002	42.1424	38.7863	36.8943	35.6965	35.4412	36.6183	37.3813	38.5244	38.8072	38.0862	36.8488	34.9997	32.5795	29.5611	27.0439	23.3025	20.5546	17.6045	14.6394	12.0063	9.3821	6.8325	4.4634	3.0937	1.4578	0.3469	0.1419	0	0	0	0	0	0	0	0	0	0	0	0	0	0	0	0	0	0	0	0	0
402	74.2257	67.4882	62.3048	54.4482	49.3245	45.0807	40.8909	37.5688	37.0455	36.7684	37.2286	38.4117	40.0151	40.0499	39.6343	38.3467	36.7211	34.1149	31.5228	28.625	25.2069	21.7756	18.7042	15.8688	13.1694	10.5619	7.9438	5.4134	3.563	2.1787	0.3294	0.2575	0.1375	0	0	0	0	0	0	0	0	0	0	0	0	0	0	0	0	0	0	0	0
404	78.8236	71.3378	64.2863	56.9338	51.6755	46.0746	42.1775	39.751	38.0271	37.5557	39.0459	40.2322	41.3183	41.2461	40.8854	40.1343	38.0707	35.7696	32.7178	29.9654	26.9084	22.984	19.8904	17.0857	14.3207	11.5683	8.8636	6.3811	4.3886	2.8461	1.0871	0.4406	0.2735	0	0	0	0	0	0	0	0	0	0	0	0	0	0	0	0	0	0	0	0
406	78.5045	71.6267	65.0859	59.3468	53.2757	48.2758	44.0157	40.2498	39.1814	38.5678	39.8841	41.0898	42.4027	43.0595	42.8876	41.4193	39.1879	37.4761	34.471	31.7719	28.4124	24.2251	21.1529	18.2621	15.4386	12.5879	9.7565	7.2624	4.9924	3.4266	1.7505	0.623	0.4089	0.0414	0	0	0	0	0	0	0	0	0	0	0	0	0	0	0	0	0	0	0
408	81.1132	73.435	66.3232	60.7764	56.7027	49.2357	44.706	41.4739	41.1839	39.8954	40.721	42.1839	44.1558	43.8105	43.8206	42.7214	41.0777	39.1389	36.3546	33.1452	29.7718	26.1414	22.4499	19.4678	16.4794	13.6267	10.8596	8.0994	5.6515	4.0442	2.49	0.8057	0.3683	0.0828	0	0	0	0	0	0	0	0	0	0	0	0	0	0	0	0	0	0	0
410	84.7782	79.3532	68.4265	63.4545	57.4936	51.8768	46.4094	42.5329	41.0751	41.3057	42.0333	43.5945	44.9245	45.2202	45.0965	44.2088	42.9296	40.6349	38.1532	34.9183	31.8103	27.8105	23.7441	20.5681	17.5177	14.785	11.8813	9.1046	6.5829	4.5962	3.1141	1.5342	0.3278	0.1239	0	0	0	0	0	0	0	0	0	0	0	0	0	0	0	0	0	0	0
412	86.6679	81.8582	71.9719	65.2655	60.3597	52.9999	48.0985	44.2832	42.9948	41.527	43.0526	44.2074	45.5086	46.2564	46.9468	46.104	44.2446	42.4555	39.1493	36.6378	33.1358	29.6423	25.0375	21.7405	18.8	16.0637	12.9015	10.0733	7.4296	5.3673	3.742	2.2304	0.2875	0.2575	0.1573	0	0	0	0	0	0	0	0	0	0	0	0	0	0	0	0	0	0
414	86.7119	83.7135	74.687	67.5092	62.2871	54.3743	49.3506	45.6596	43.9424	43.3123	43.5995	45.7887	46.7379	47.8579	48.047	47.3344	45.6155	43.5253	40.9275	37.9929	34.4909	30.8962	26.8055	23.0347	20.0798	17.0779	13.9195	11.1031	8.4056	6.1238	4.2881	2.8255	1.1592	0.4831	0.3141	0	0	0	0	0	0	0	0	0	0	0	0	0	0	0	0	0	0
416	90.8699	83.9887	76.8187	69.4209	61.6866	55.3836	50.3627	46.7001	44.6222	43.8561	44.6883	46.3905	47.8667	48.2639	48.8821	48.7778	47.1598	45.5572	42.7226	39.454	36.5148	32.9177	28.3305	24.3822	21.4059	18.1312	14.9694	11.8329	9.1442	6.8663	4.9626	3.4001	2.0289	0.7096	0.4716	0.073	0	0	0	0	0	0	0	0	0	0	0	0	0	0	0	0	0
418	93.1886	88.7023	76.8721	70.9297	65.8035	58.1155	52.5834	49.054	45.5371	45.9375	45.2826	46.9114	48.7346	49.2734	50.2173	50.1395	48.5273	46.5117	44.3015	41.4883	37.6984	34.1474	29.9796	25.792	22.5224	19.2308	16.1293	12.9696	10.1647	7.8391	5.7339	4.0856	2.6202	0.9386	0.4849	0.1464	0	0	0	0	0	0	0	0	0	0	0	0	0	0	0	0	0
420	99.1816	88.4741	80.4109	72.3493	67.7284	60.2252	53.9982	50.0524	47.0553	45.5992	46.3759	48.2943	49.7316	50.8624	51.2668	51.6446	50.2421	48.1155	45.9054	43.0781	39.7122	35.5983	31.3616	27.2116	23.7181	20.4805	17.3146	14.114	11.2365	8.6847	6.374	4.6372	3.3316	1.6932	0.4983	0.2202	0	0	0	0	0	0	0	0	0	0	0	0	0	0	0	0	0
422	97.0162	88.7915	82.7354	75.0208	68.9357	62.523	55.6664	50.3634	48.6464	47.1754	47.6738	48.9477	50.595	52.3332	52.5324	52.6442	51.7941	50.1185	47.195	45.0538	41.0595	37.0056	32.8628	28.5471	25.0001	21.7441	18.4047	15.2698	12.1731	9.3976	7.2924	5.2575	3.8764	2.301	0.5119	0.3943	0.2031	0	0	0	0	0	0	0	0	0	0	0	0	0	0	0	0
424	97.9369	92.4257	84.1269	76.7903	70.7482	63.9451	57.5574	51.578	48.7741	47.9007	48.6725	49.5621	51.4578	52.6673	53.7908	53.69	53.2785	51.1981	49.0307	46.2437	42.4264	38.5526	34.2551	30.2123	26.2914	22.9084	19.5026	16.434	13.1837	10.3804	7.9468	5.8879	4.4022	2.8098	1.4286	0.6695	0.4075	0	0	0	0	0	0	0	0	0	0	0	0	0	0	0	0
426	103.2827	93.0899	84.9306	77.3727	72.5605	63.688	58.4362	52.7561	50.7668	48.6937	49.1235	50.7817	52.8898	53.3029	54.5171	54.8795	54.1189	52.6452	50.3942	47.7682	43.8117	40.3271	35.4859	31.6592	27.6369	24.0656	20.7173	17.5483	14.2244	11.3102	8.9001	6.5735	4.9813	3.5952	1.9937	0.9482	0.6143	0.1142	0	0	0	0	0	0	0	0	0	0	0	0	0	0	0
428	106.3605	95.1238	86.7384	81.5644	73.2335	66.1051	59.5554	54.8284	50.593	49.4507	50.3149	51.1726	53.1943	54.3342	55.5875	56.0132	55.5941	54.1798	51.9373	48.8474	45.4138	41.4324	36.9452	33.1991	29.2604	25.2748	21.9795	18.5288	15.3002	12.2553	9.7538	7.4033	5.5474	4.109	2.689	1.2315	0.6791	0.2299	0	0	0	0	0	0	0	0	0	0	0	0	0	0	0
430	108.3202	99.8469	89.3351	81.5751	74.1262	66.9834	60.5576	55.3224	52.221	50.643	50.6706	51.8035	53.6863	55.3452	56.3184	57.0395	56.5902	55.4699	53.4969	50.7039	47.2436	42.8637	38.3327	34.3488	30.53	26.4988	23.0814	19.5213	16.3896	13.2594	10.4814	8.2718	6.2847	4.6173	3.2266	1.8071	0.7447	0.347	0	0	0	0	0	0	0	0	0	0	0	0	0	0	0
432	108.5008	100.656	89.3241	82.7273	76.5819	67.3445	62.0674	56.6687	53.2262	51.4314	51.3355	52.9849	54.6024	55.8342	57.6672	57.8937	57.6208	56.6935	54.6563	51.9031	48.4324	44.449	39.7659	35.3941	32.1951	27.7069	24.0814	20.622	17.4495	14.2604	11.3241	8.8282	6.9113	5.1166	3.9502	2.4095	0.8101	0.5358	0.2184	0	0	0	0	0	0	0	0	0	0	0	0	0	0
434	109.8468	99.6855	92.4533	85.736	77.8482	69.5368	62.643	56.7682	53.9184	52.4559	51.4587	53.1605	55.4216	56.7035	57.801	58.5517	58.3144	57.799	55.9404	52.8	49.5265	45.4826	41.0572	36.8239	33.2524	29.1212	25.0914	21.7342	18.4727	15.2719	12.3442	9.5864	7.7024	5.9206	4.4162	2.9476	1.4587	0.7975	0.4391	0	0	0	0	0	0	0	0	0	0	0	0	0	0
436	110.8792	101.9995	93.1255	86.2276	81.1614	71.0206	63.2636	58.2811	54.9488	52.2318	52.4506	54.2788	55.3886	57.199	58.2383	59.5083	59.7449	58.2925	57.2365	54.2803	50.9906	46.869	42.0317	37.7961	34.2621	30.4223	26.1453	22.8392	19.5317	16.3151	13.0376	10.5612	8.4619	6.3598	4.8848	3.5712	2.0428	1.0634	0.6629	0.1137	0	0	0	0	0	0	0	0	0	0	0	0	0
438	110.582	101.0256	95.4845	87.0098	80.0923	73.5701	65.4645	59.765	55.6052	52.5312	53.2981	54.2807	56.1574	57.8561	58.6947	60.2631	60.3258	60.0478	57.8789	55.1202	51.6939	48.1088	43.2864	39.2064	35.5525	31.4915	27.2465	23.8694	20.4409	17.108	13.824	11.1506	9.1093	7.1513	5.4874	3.9974	2.6045	1.3343	0.7144	0.2291	0	0	0	0	0	0	0	0	0	0	0	0	0
440	113.9302	105.0698	96.8079	87.7033	82.222	75.1216	66.644	59.9154	55.9301	53.6038	52.9111	54.0745	56.201	57.3071	59.302	60.7605	60.93	60.716	58.9448	56.5753	52.9798	49.0144	44.5332	39.9029	36.3045	32.5805	28.5156	24.6271	21.1715	17.7578	14.6215	11.9532	9.8863	7.8092	5.9977	4.462	3.1783	1.7801	0.7665	0.3463	0	0	0	0	0	0	0	0	0	0	0	0	0
442	112.3108	104.5364	98.8971	89.1254	84.1108	75.1721	67.2151	60.1217	56.9834	55.0242	53.9161	54.0267	56.8395	57.7704	59.9425	61.2694	61.9022	61.3268	59.4799	57.2636	54.2396	49.9991	44.9971	41.1403	37.4909	33.872	29.7049	25.3743	21.8943	18.2849	15.418	12.7171	10.3889	8.4343	6.6853	5.0469	3.7218	2.3378	0.8187	0.4985	0.1734	0	0	0	0	0	0	0	0	0	0	0	0
444	115.8728	106.0145	97.4589	89.1623	84.0609	76.1801	67.3517	61.723	57.3004	54.6268	54.5077	54.9594	56.8179	59.0468	60.1362	61.5999	62.1893	61.7338	60.5389	58.5126	54.8538	50.612	46.4917	41.6654	38.226	34.4489	30.2694	26.1298	22.5083	18.8176	16.2245	13.4063	11.233	9.2085	7.2521	5.4626	4.2408	2.9215	1.4749	0.6867	0.3492	0	0	0	0	0	0	0	0	0	0	0	0
446	117.7918	107.1229	98.4464	90.4898	83.6981	75.3253	69.4036	62.7428	58.5817	55.0995	54.557	55.328	56.816	58.552	60.7273	62.3063	62.8651	62.6442	60.8237	58.7315	55.4164	51.7007	47.6709	42.6993	39.2807	35.4791	31.5238	26.9112	23.085	19.6612	16.9412	14.1131	12.1573	9.8153	7.8513	6.0925	4.6017	3.3309	2.0985	0.8779	0.5277	0.1208	0	0	0	0	0	0	0	0	0	0	0
448	120.4431	106.3851	99.2552	93.379	84.7816	77.4604	69.6956	63.043	58.7032	55.2358	54.3267	55.1361	57.0099	59.2336	60.6679	62.4929	63.1794	63.2797	61.8012	59.7271	56.3877	52.1163	47.7452	43.361	40.2641	36.0646	32.3649	27.8884	23.6832	20.529	17.4546	14.8388	12.6322	10.5323	8.5477	6.7644	5.1449	3.8206	2.5954	1.0726	0.6395	0.2436	0	0	0	0	0	0	0	0	0	0	0
450	113.6062	108.3934	99.8099	91.6087	85.879	78.5691	69.7831	63.186	58.932	56.0703	54.379	55.387	57.2796	58.6931	60.6988	62.2632	63.4102	63.3234	62.2582	60.0211	57.4339	53.1409	48.4586	44.0958	40.897	36.9958	33.1491	28.7721	24.2883	21.184	17.9743	15.5747	13.2757	11.1028	9.2221	7.2335	5.5836	4.3398	3.0416	1.7981	0.7529	0.3683	0	0	0	0	0	0	0	0	0	0	0
452	116.9733	108.9827	101.6091	92.4118	86.4817	78.3557	70.9776	63.3224	59.206	56.2524	55.7994	55.912	57.9257	58.802	61.0362	62.0598	62.8935	63.5874	62.9955	60.3944	57.114	53.3981	48.9199	44.6004	41.1942	37.8865	33.8471	29.6791	24.9117	21.7437	18.7492	16.301	13.9345	11.9492	9.7592	7.8595	6.1458	4.6761	3.5085	2.0776	0.8685	0.5288	0.1846	0	0	0	0	0	0	0	0	0	0
454	112.3119	105.8092	98.8724	94.4538	87.9201	79.3334	70.8437	65.5835	59.6671	55.667	55.3901	56.1135	57.3922	58.0929	60.2104	62.9162	63.4579	64.0011	62.7243	60.7864	58.0713	53.9839	49.6801	45.6331	41.6351	38.451	34.7896	30.2428	25.9357	22.31	19.535	16.9827	14.6026	12.3055	10.4156	8.7075	6.5602	5.1892	4.0592	2.6722	1.6253	0.7256	0.3722	0	0	0	0	0	0	0	0	0	0
456	114.9249	109.3938	98.9689	93.7488	88.8984	80.57	72.2374	64.2275	60.5711	56.5987	55.653	55.7249	57.5984	58.4554	59.8527	62.4505	63.782	63.7253	62.9607	60.5614	58.4537	54.2884	49.9947	45.8265	42.2981	38.5409	35.2417	31.0536	26.7793	22.9184	20.3075	17.701	15.3039	12.7295	10.7754	8.9421	7.2446	5.6433	4.3446	3.054	1.872	0.927	0.5638	0.0961	0	0	0	0	0	0	0	0	0
458	116.8766	109.5242	98.5003	93.6699	88.2476	78.7344	73.1193	65.8633	60.3375	56.5635	55.4702	55.8167	57.2062	58.3918	60.2887	61.6224	63.4432	63.679	63.0563	61.3405	58.7758	54.7405	50.3869	45.9605	42.617	39.459	35.3131	31.713	27.481	23.5708	21.0094	18.2861	15.779	13.2308	11.5601	9.5275	7.867	6.1193	4.6818	3.486	2.3043	1.1339	0.6045	0.1944	0	0	0	0	0	0	0	0	0
460	115.8145	107.0027	98.143	94.8484	87.9684	80.8289	72.2709	65.2931	61.0528	56.4542	55.3755	56.0871	57.0506	58.0034	59.938	61.5579	62.9447	63.5425	63.1103	61.1957	58.8106	54.919	50.5647	46.5988	43.2469	39.9584	36.2276	32.262	28.1676	24.1766	21.4599	18.7055	16.1206	13.7402	11.9241	10.1724	8.2176	6.5555	5.0504	3.811	2.7447	1.5724	0.6459	0.2948	0	0	0	0	0	0	0	0	0
462	110.7733	107.5475	99.5926	93.0185	88.2867	79.7984	72.5756	66.1356	60.4212	58.0334	55.5341	55.3188	56.4441	57.4662	59.7299	61.919	62.9522	63.5713	62.9298	61.7573	58.333	54.9735	50.7623	46.8767	43.5127	40.4092	36.453	32.6383	28.6151	25.0411	21.9394	19.1509	16.3784	14.2734	12.5013	10.5882	8.7624	7.0761	5.4165	4.3009	3.1075	1.9769	0.6888	0.4031	0.1234	0	0	0	0	0	0	0	0
464	112.7448	105.4235	98.4643	94.3331	87.9111	80.4021	72.9107	65.4606	60.9616	57.002	56.1409	55.4812	56.4014	57.4511	59.7051	61.2116	62.756	63.3076	62.6367	61.5442	59.0312	55.5161	50.8908	46.9205	43.7076	40.6484	36.7241	33.0921	29.266	25.8892	22.4244	19.4958	16.6376	14.8156	12.8177	11.1487	9.0636	7.372	5.9743	4.6511	3.542	2.2752	1.2184	0.5194	0.2498	0	0	0	0	0	0	0	0
466	111.017	106.4313	99.4912	94.7296	88.3382	81.0186	73.6547	66.8592	61.407	57.3856	56.0312	55.1235	55.9895	56.8039	59.2339	60.4639	62.6538	63.3972	62.0949	60.4312	58.6883	55.5264	50.6778	47.1788	44.0015	41.2167	37.4303	33.4138	29.3881	26.0159	22.9219	19.7961	17.2146	15.2437	13.1421	11.5989	9.4773	8.1139	6.2792	4.7608	3.5936	2.6665	1.5577	0.6386	0.3793	0.0738	0	0	0	0	0	0	0
468	109.2521	106.7849	99.1088	92.8911	87.5107	81.6275	72.108	66.2552	61.3926	57.0136	55.504	54.6775	55.7794	56.959	59.0621	60.1782	61.9415	62.0156	62.126	61.1603	58.374	55.3914	51.2012	47.3009	44.0623	41.5014	37.4292	33.7933	29.8034	26.4949	23.5295	20.1041	17.8063	15.4241	13.4747	11.6644	9.8634	8.3185	6.5741	5.1805	3.8983	2.9333	1.9987	0.7606	0.4289	0.1493	0	0	0	0	0	0	0
470	107.4137	105.0013	97.7923	93.6991	87.8229	82.3391	72.9451	65.0836	61.0596	57.4123	54.6458	55.0217	55.5101	56.7927	57.8663	59.6445	61.1385	61.4202	61.3843	60.3117	58.4382	54.6163	50.656	46.8867	44.1464	41.5289	37.512	33.898	30.0281	26.9691	23.7542	20.4138	18.1462	15.6043	13.8115	11.9451	10.4638	8.6555	6.9495	5.5558	4.1796	3.1856	2.2642	1.2748	0.4796	0.2267	0	0	0	0	0	0	0
472	105.7648	103.4442	97.5371	92.8145	87.1783	80.1661	73.1987	66.3732	61.7066	56.87	54.924	54.0895	54.174	55.4648	57.3721	59.3924	60.4729	61.361	60.8635	59.7163	57.1291	54.2373	50.6707	46.7756	43.9695	40.9368	37.4879	34.024	30.2017	26.9511	24.1241	20.7746	18.4008	16.0039	14.1745	12.2583	10.6453	8.9857	7.3007	5.8152	4.4189	3.5477	2.577	1.6312	0.5327	0.339	0.1292	0	0	0	0	0	0
474	104.0268	100.7634	96.7042	91.0055	85.3722	79.6941	72.8767	65.8295	60.4212	56.2549	54.3311	53.458	54.1712	54.0734	56.3392	58.2598	59.3075	60.4982	60.1704	58.9617	56.9061	54.0227	50.3486	46.9525	43.5897	41.0592	37.9733	34.2931	30.5544	27.4867	24.5799	21.2923	18.6553	16.4085	14.5183	12.5755	10.9687	9.3284	7.5867	6.0393	4.7351	3.7732	2.8497	2.043	1.003	0.4872	0.2621	0	0	0	0	0	0
476	102.1025	99.2953	93.642	90.5131	85.7728	81.0893	71.5008	64.8396	60.8253	56.6465	53.7541	52.8669	53.0181	53.6874	55.8212	57.0167	58.2819	59.4492	59.1906	57.9828	56.3058	53.2889	49.601	46.1375	43.8664	40.7142	37.9719	34.0778	30.2384	27.4775	24.6052	21.5312	18.8923	16.7788	14.8526	12.8851	10.8615	9.7423	7.9376	6.3527	4.9753	4.0262	3.0533	2.0317	1.3287	0.6389	0.3982	0.0747	0	0	0	0	0
478	100.0021	97.6648	94.1096	89.4039	85.2158	77.573	71.2609	65.6451	59.6044	55.7049	53.0267	52.5234	52.2764	52.8124	54.5656	56.4596	57.5142	58.3536	58.2563	57.0394	54.9935	52.8276	49.2551	45.7974	43.6604	40.5598	37.4899	34.0994	30.4743	27.6329	24.6874	21.6401	19.1118	17.0965	15.1186	13.0986	11.1516	9.8156	8.2142	6.7907	5.3175	4.2033	3.3149	2.5007	1.5303	0.7936	0.4442	0.1512	0	0	0	0	0
480	97.8269	95.9695	94.2753	88.4998	85.4807	78.2288	71.8076	64.7675	60.2269	55.613	53.0092	52.4657	52.5652	52.2156	53.4501	55.6904	56.5285	57.7529	57.4966	56.1746	54.5005	52.0715	48.5064	45.5104	42.9435	40.2813	37.5381	34.2722	30.6009	27.7139	24.7445	22.2044	19.3518	17.3291	15.3278	13.2629	11.4455	10.0454	8.4911	6.8411	5.6528	4.3902	3.5434	2.7386	1.874	1.1521	0.4912	0.2295	0	0	0	0	0
482	95.3713	94.0069	92.6904	86.0183	82.4782	77.3979	69.7497	63.9601	59.2346	55.8148	53.4056	51.6796	51.5892	51.5706	53.4212	54.3985	56.0255	56.0761	56.2868	55.4977	53.9222	51.5312	48.4919	45.2016	42.8189	40.2409	37.1319	33.8446	30.7591	27.7945	25.0617	22.3484	19.7281	17.526	15.5055	13.3576	11.7189	10.2706	8.8821	7.2288	5.7978	4.6716	3.6698	2.9353	2.1533	1.3717	0.538	0.3294	0.1135	0	0	0	0
484	92.857	91.9931	90.8514	86.0412	82.4019	78.6835	70.726	63.7579	57.7992	54.0107	52.3059	50.267	50.3078	51.0534	51.688	53.5478	54.6936	55.8916	55.4872	54.2577	52.6423	50.9098	47.2542	44.7643	42.2417	39.9823	37.1936	33.9101	30.3708	27.6909	25.1124	22.1182	20.0353	17.7235	15.6415	13.4516	11.9954	10.4129	8.9916	7.4455	6.0968	4.8076	3.8746	3.1687	2.3848	1.7083	0.9974	0.4516	0.2292	0	0	0	0
486	90.266	89.91	88.8046	85.6571	82.7402	75.5952	69.2527	62.8351	58.0871	53.8873	51.3523	50.1866	51.1137	49.8051	51.5471	52.9394	53.8958	54.7082	54.3927	53.6987	52.3066	50.0987	46.6207	44.0447	42.1815	39.6317	37.0531	33.6061	30.3842	27.7039	25.2267	22.3726	20.4022	17.9181	15.7527	13.742	12.2021	10.554	9.0546	7.5403	6.3949	5.1511	4.0053	3.3043	2.6388	1.9279	1.1307	0.576	0.347	0.0619	0	0	0
488	87.6009	87.7599	86.6917	86.274	82.5384	76.2163	68.9613	62.9127	57.0818	53.5198	51.7828	49.8297	49.9538	49.4149	50.2539	51.3718	52.7181	53.598	53.3653	52.5688	50.9783	49.551	46.5823	43.7077	41.7727	39.4723	36.7425	33.9668	30.4268	27.4781	25.2862	22.5043	20.3974	17.9902	15.8603	14.0326	12.2656	10.6938	9.2883	7.9509	6.5302	5.4294	4.2798	3.6413	2.8335	2.1664	1.5015	0.7024	0.3786	0.1248	0	0	0
490	84.8812	85.5619	84.5315	81.5056	80.2148	74.4118	68.2819	62.2436	57.6194	52.7022	50.9238	49.1534	48.7616	48.5264	49.3161	50.8603	52.0467	52.505	52.3709	51.9557	50.5144	48.6396	45.3227	43.1412	41.1853	38.7719	36.6785	33.1789	30.3763	27.3961	25.1395	22.6877	20.5072	18.2003	15.9673	14.1829	12.3283	10.8345	9.2966	8.0884	6.7001	5.6346	4.5319	3.6003	3.0298	2.3921	1.7201	1.0091	0.4107	0.1889	0	0	0
492	82.1881	83.2875	82.4055	81.4195	80.6214	74.7407	68.0014	61.9603	56.5178	52.2606	49.668	48.8081	48.2963	47.5659	48.3981	49.4614	50.7952	51.9176	51.5629	50.6967	49.6594	47.4123	45.1177	42.9563	40.918	38.6682	36.4154	33.1647	30.0524	27.6128	24.7679	22.5926	20.5426	18.2369	16.089	14.2749	12.4947	10.9864	9.4639	8.4379	7.05	5.874	4.6945	3.7485	3.1682	2.458	1.8563	1.3095	0.4438	0.2831	0.1077	0	0
494	79.4343	80.8467	80.2268	81.7126	77.8258	73.6991	67.6683	61.304	56.333	52.3299	49.1959	48.4832	47.5619	47.1282	48.0297	49.2874	49.3494	50.1228	50.3513	50.3922	48.7356	46.766	44.2405	41.7199	40.2379	38.2679	36.0469	32.7272	29.7595	27.7698	25.1873	22.4279	20.6636	18.5506	16.3786	14.366	12.6619	11.0798	9.6327	8.4957	7.2399	6.0769	5.0228	4.0005	3.3169	2.7229	2.0817	1.4859	0.8759	0.4081	0.2174	0	0
496	76.5961	78.3253	79.3097	79.1705	76.347	71.7986	66.056	59.3201	55.435	51.3769	48.9916	47.5362	46.1206	46.2399	46.7452	47.8634	48.6552	48.7803	49.2898	48.5167	47.1781	45.6932	43.1381	41.1124	39.5971	37.8664	35.216	32.4755	29.5758	27.21	24.9193	22.4369	20.6895	18.4752	16.4642	14.4518	12.7963	11.1397	9.8001	8.5122	7.4202	6.2211	5.176	4.1567	3.3709	2.9245	2.2364	1.7529	0.9866	0.5353	0.3292	0.0792	0
498	73.6775	75.9714	76.5794	76.5506	75.2633	69.9875	65.8106	59.2707	54.9178	50.8973	47.4307	46.4022	45.5973	45.0499	45.5229	47.2164	46.9296	48.1488	47.6755	47.5365	46.7278	44.7898	42.4977	40.6903	38.704	37.032	35.4358	32.511	29.3879	26.9246	24.7541	22.4657	20.4133	18.6665	16.6807	14.5324	12.867	11.1955	9.9659	8.5599	7.6136	6.3924	5.3505	4.2984	3.4921	3.0471	2.5212	1.9419	1.2599	0.6645	0.4077	0.1598	0
500	69.7402	72.8737	73.7961	73.879	74.7288	70.3979	63.7531	58.6333	53.7984	50.0849	47.3635	45.8295	45.4169	44.1587	44.1412	45.6808	45.9551	46.9064	47.1042	46.3096	45.2226	44.1483	41.8843	39.6799	38.0981	36.4773	34.7643	31.8953	29.1158	26.8394	24.7024	22.2855	20.5178	18.6055	16.7173	14.7503	12.9369	11.3736	10.051	8.607	7.6591	6.5833	5.4564	4.6122	3.6659	3.1342	2.6993	2.1447	1.5426	1.0759	0.4875	0.2418	0
502	70.2865	69.6986	70.8507	71.1343	71.2037	69.049	63.7561	57.7311	53.5448	48.7195	46.316	44.3806	43.9894	43.3796	43.655	44.2724	44.9014	45.8285	45.5397	45.3959	44.3425	43.174	40.897	38.6193	37.4912	36.0734	34.064	31.285	28.7185	26.5265	24.53	22.1447	20.1077	18.5612	16.6313	14.8902	13.0022	11.5495	9.9672	8.6511	7.7366	6.802	5.6625	4.784	3.7928	3.2227	2.7519	2.289	1.7385	1.2997	0.5685	0.3709	0.2082
504	68.804	66.4702	67.7661	68.3408	68.9915	65.8558	62.0095	57.0054	52.2034	47.9309	46.1279	44.1427	43.1109	42.9074	42.1412	43.3141	43.605	44.3622	44.1019	44.3561	43.0254	41.6607	39.3032	38.0138	36.7256	35.1447	33.4133	31.1414	28.3709	26.1828	23.9165	21.4489	19.8456	18.5016	16.3744	14.847	13.0668	11.5597	9.8806	8.6948	7.5106	6.7515	5.7777	5.0364	4.0498	3.1463	2.91	2.4492	1.8699	1.4541	0.8098	0.5483	0.4199
506	68.4622	63.2653	64.708	66.2475	66.882	66.3059	61.4767	56.1362	52.0225	47.7047	44.2783	43.2903	42.2277	40.8692	41.6409	42.173	42.833	43.1167	42.8559	42.801	41.9517	40.7157	38.7052	37.1263	36.0486	34.2735	32.4941	30.4913	27.7702	25.7983	23.7969	21.5156	19.7697	18.0629	16.7252	14.9929	13.1462	11.4978	9.9451	8.7483	7.5976	6.8929	5.9679	5.227	4.4068	3.3416	2.9539	2.6205	2.0798	1.6711	1.2624	0.7294	0.6359
508	57.7144	60.0703	62.7387	64.4972	64.8025	65.2041	59.2962	54.2581	49.7405	47.2274	43.8942	41.9591	41.4975	40.3067	40.1553	41.3529	41.639	41.9121	41.9694	41.8316	40.7749	39.6527	38.2744	36.1775	35.2456	33.9519	31.9684	29.5224	27.3005	25.2355	23.2641	21.3192	19.7272	18.0438	16.3398	14.7103	13.0808	11.4461	10.0207	8.7626	7.6938	6.9473	6.1579	5.3134	4.548	3.5682	2.9382	2.8383	2.3419	1.8748	1.2962	0.915	0.8568
510	56.6191	58.1641	60.7135	62.6987	62.6691	62.8947	58.7026	54.2043	49.5953	46.3051	42.7967	41.5935	40.214	39.3642	39.7071	39.6967	39.9066	40.669	40.7282	40.4578	39.4747	38.3186	36.9844	35.3425	34.2829	33.4328	31.7838	29.2485	26.832	24.7927	23.0304	20.9875	19.5823	17.7342	16.3418	14.7896	13.3389	11.3908	10.0709	8.7506	7.7904	7.0061	6.3586	5.3999	4.6392	3.8099	3.0567	2.8004	2.4469	2.0654	1.5611	1.0614	1.0822
512	55.4827	59.02	58.6294	60.5589	60.4743	59.9618	57.2777	52.1849	48.8994	44.9361	42.3617	40.2166	39.351	37.7656	38.6836	38.4164	38.8666	39.6746	39.616	39.2295	38.8	37.268	35.6462	34.5017	33.4967	32.4292	30.8352	28.8557	26.3718	24.3245	22.6979	20.752	19.1459	17.4873	16.0577	14.8446	12.9994	11.3304	10.0684	8.7354	7.8863	7.0023	6.3552	5.5625	4.7653	4.0353	3.0559	2.6377	2.5701	2.1056	1.6443	1.315	1.312
514	54.3129	57.5808	56.495	58.0797	58.2269	58.887	55.0479	51.4275	47.3051	44.2121	41.1745	39.6002	37.8787	37.2103	37.2749	37.5038	37.7873	38.3617	37.9417	38.061	37.3632	36.546	34.8609	33.5537	32.9312	31.8866	30.1872	28.2817	25.8169	23.8609	22.385	20.3008	18.9519	17.5385	16.1332	14.5686	13.0246	11.5603	10.0638	8.8405	7.9253	6.9969	6.4552	5.7178	4.9314	4.1768	3.3444	2.6773	2.4936	2.2042	1.8603	1.556	1.5524
516	53.1515	57.8924	54.3531	55.5884	57.6308	56.8905	53.7955	50.5745	47.3749	43.0233	40.1237	39.2594	36.7099	36.5638	36.2939	36.7915	36.9857	37.5058	36.4445	36.9519	36.4891	35.1722	33.9096	32.7133	31.7274	30.822	29.5372	27.7006	25.5494	23.3086	22.2156	19.8513	18.6865	17.0585	15.7426	14.3672	13.2002	11.6677	10.0649	8.9527	7.8539	6.9955	6.2556	5.6932	5.0575	4.3654	3.5419	2.7386	2.5298	2.4391	1.9962	1.5659	1.5623
518	51.9943	52.6485	52.1976	55.5568	55.8112	54.8844	54.1112	49.5254	45.3904	41.956	39.6604	38.1789	36.5291	35.514	35.0449	35.6914	35.5476	36.2405	36.0354	35.6147	35.2579	34.1745	32.853	32.1758	30.8885	29.9067	28.9604	27.0676	24.6746	23.0377	21.7717	19.7101	18.4146	16.9917	15.6363	14.2845	13.0344	11.4663	10.0713	8.954	7.785	6.9977	6.2622	5.6983	5.1592	4.4001	3.6976	2.6645	2.4904	2.526	2.1542	1.6611	1.6573
520	50.7986	42.3647	52.7874	53.4782	53.9388	52.8223	50.7441	47.8689	43.7854	40.8365	38.4659	37.4906	35.4737	34.3946	34.2527	34.5611	34.4319	35.016	35.0853	34.8937	34.3006	33.5173	32.3284	30.9939	30.0234	29.6855	27.9502	26.2667	24.2649	22.5933	21.1792	19.5666	18.0204	16.5899	15.3562	14.0298	12.8349	11.4861	10.0753	8.8934	7.7941	6.9981	6.2486	5.7593	5.1509	4.5401	3.9153	2.7936	2.3923	2.556	2.162	1.8473	1.8431
522	49.5612	41.9377	49.5761	51.3401	51.8066	50.701	50.595	46.5148	44.0547	40.2306	37.6454	35.8721	34.5629	33.4515	33.5988	33.217	33.2568	33.6624	33.8295	33.5818	33.3661	32.5523	30.8029	30.087	29.483	28.8269	27.3785	25.7646	23.6822	22.4265	20.5989	18.783	17.5361	16.5606	15.0525	13.794	12.6606	11.2196	9.9453	8.8285	7.8011	6.9453	6.2328	5.7311	5.1459	4.5105	4.034	3.1724	2.337	2.4151	2.2565	1.9103	1.9059
524	48.2858	41.4912	49.4557	49.1464	49.4134	48.5246	47.5522	44.619	42.6548	38.4215	37.035	35.6431	33.5881	32.5797	32.6177	32.7952	33.0401	33.0075	32.45	32.5982	31.8685	31.1688	30.1743	29.5104	28.7754	27.9655	27.0769	24.9389	23.2453	21.6715	20.352	18.6372	17.3467	15.9479	14.9588	13.7581	12.2959	11.1735	10.0118	8.7602	7.7803	6.8638	6.2151	5.6597	5.1717	4.5665	4.21	3.3996	2.0973	2.1799	2.3292	2.0656	2.0609
526	47.0046	41.0533	50.774	46.9298	46.9938	45.8089	45.6997	44.5888	41.2351	38.0169	35.5313	34.32	33.0653	31.8387	31.7262	31.4277	31.5442	31.7521	31.6107	31.5094	31.3318	30.626	29.3937	28.3562	27.9049	27.075	26.0407	24.4832	22.906	21.1635	19.8368	18.1977	17.0468	15.9415	14.501	13.6448	12.1986	11.0301	10.102	8.6941	7.7102	6.7834	6.1997	5.6234	5.1813	4.6463	4.1641	3.6009	2.3897	2.0717	2.3761	2.1036	2.0988
528	45.7141	40.6221	47.3846	44.6848	44.602	44.32	43.8254	42.4632	41.1039	37.5275	35.1006	33.4077	32.1426	31.3588	30.9139	30.898	30.5588	30.4767	30.56	30.6527	30.371	29.8621	29.0134	27.6456	27.0366	26.8427	25.4795	24.1127	22.0651	20.8216	19.2977	17.8429	16.5478	15.6017	14.2869	13.2319	12.1472	10.8673	9.8683	8.6522	7.6414	6.7777	6.1584	5.5886	5.2649	4.6951	4.2659	3.6708	2.8144	1.9954	2.2468	2.1523	2.1474
530	44.3809	40.1689	40.0789	42.6686	42.8981	42.7845	41.8967	42.1607	39.1703	37.0292	34.9814	32.6509	31.3036	29.6533	30.0163	30.1093	30.2764	29.7465	30.0535	29.9217	29.5079	29.1463	27.8154	26.9371	26.4101	25.7988	24.7431	23.3782	21.8557	20.608	18.9398	17.5408	16.4731	15.1366	14.0655	12.9764	11.8377	10.8436	9.7903	8.8465	7.5689	6.77	6.0576	5.5514	5.2224	4.8449	4.2471	3.7558	3.0472	1.8591	2.0171	2.218	2.213
532	43.0115	39.6997	33.2799	43.5209	41.1506	40.9395	39.9199	40.152	39.2105	35.9088	33.7084	31.7677	30.2637	29.2846	29.4759	29.1755	28.8456	28.9318	29.3474	29.0695	28.8174	28.3145	27.2715	26.3523	25.8177	25.3541	24.4219	22.8367	21.0964	19.734	18.3631	17.1375	15.9743	15.0381	13.6933	12.8545	11.7626	10.7405	9.7578	8.584	7.4936	6.7039	5.9536	5.5126	5.056	4.6059	4.2108	3.8818	3.1453	2.0355	1.7779	2.1851	2.1801
534	41.5992	39.2082	34.4844	41.5833	39.3526	38.7703	37.8884	39.3947	36.8673	34.7218	32.4586	30.9314	29.8968	28.8809	28.2141	27.9939	27.7428	28.3972	28.2375	27.7559	27.8785	27.7953	26.1598	25.3657	25.1058	24.4353	23.2792	22.2508	20.6447	19.4049	18.1574	16.934	15.7673	14.6255	13.7202	12.5922	11.5896	10.428	9.6147	8.6208	7.4144	6.6055	5.9185	5.4712	5.0091	4.7124	4.428	3.8271	3.2992	2.4112	1.4904	2.081	2.0762
536	40.1648	38.7147	35.7275	40.6246	37.524	36.5629	37.4542	37.5987	36.5357	34.4248	31.9609	29.8807	28.9408	27.7193	27.1744	27.5285	27.0099	27.3574	27.2004	27.4503	27.0734	26.4955	25.2684	24.7724	24.4472	24.0319	22.8679	21.4763	20.245	18.9617	17.6177	16.5395	15.1883	14.2782	13.3166	12.2748	11.4733	10.48	9.3924	8.4885	7.3206	6.5064	5.8841	5.4134	4.9622	4.5943	4.2596	3.8398	3.2903	2.6818	1.4109	1.8781	1.8738
538	38.7056	35.543	37.0107	40.6311	35.6615	36.4701	35.8157	35.7694	35.5986	33.5018	31.3298	29.856	28.1129	27.1892	26.9063	26.7184	26.5623	26.7142	26.6667	26.2299	26.0241	25.514	24.6061	23.9615	23.6743	23.07	22.4412	21.0447	19.7146	18.4522	17.3063	15.7664	14.9612	14.0932	13.0555	11.9777	11.2633	10.2498	9.2976	8.368	7.3815	6.4061	5.8416	5.3467	4.9152	4.4917	4.357	3.8575	3.3517	2.971	1.6213	1.3532	1.3501
540	37.1998	36.9035	38.3159	39.4021	35.9455	34.6633	34.1275	33.8864	34.4269	31.9934	30.3113	28.8069	27.314	26.8772	26.0349	25.7828	25.5103	25.5705	25.713	25.6074	25.0281	24.5182	24.1089	23.3812	22.7625	23.0052	21.6441	20.6756	19.0827	17.9711	16.9198	15.4671	14.8669	13.7848	12.6938	11.8958	11.3251	10.0846	9.1077	8.2282	7.324	6.3014	5.7791	5.2768	4.8655	4.4327	4.3009	3.9316	3.5217	3.0301	1.9091	1.1332	1.1306
542	35.7319	34.8045	33.177	31.708	36.1823	32.8819	32.3373	32.0254	32.968	30.7388	29.7332	28.7123	26.6974	25.598	24.9932	25.1139	24.4438	24.9916	24.7846	25.1922	24.8273	24.1184	23.6036	22.63	22.5048	22.0427	21.4049	19.993	18.6612	17.6293	16.675	15.2604	14.151	13.3715	12.535	11.6591	10.8683	10.1079	8.9869	8.2976	7.1271	6.4962	5.7267	5.2427	4.8189	4.3812	4.202	3.959	3.3365	3.0396	2.4124	0.9384	0.9363
544	38.6907	32.9793	27.3121	22.4644	35.071	31.0377	30.3536	30.0999	32.611	30.6776	29.062	27.0725	25.8776	24.7729	24.588	24.311	24.2145	24.5512	24.3584	23.4894	23.8273	23.5282	22.7486	22.1727	22.1274	21.3069	20.5132	19.3672	18.2476	17.086	16.1428	14.7886	14.3175	13.1561	12.2056	11.3643	10.6503	9.6504	8.8238	7.9869	7.1526	6.5018	5.6704	5.2053	4.758	4.3263	4.1489	3.9492	3.4872	3.0663	2.594	1.1859	1.1832
546	44.8363	36.6076	28.7171	24.7218	35.3487	29.115	28.2885	30.4351	31.0532	29.8974	28.3612	26.966	25.1599	24.691	24.0936	23.5361	23.6146	23.5402	23.4528	23.2481	23.123	22.5906	22.3609	21.9702	21.2723	20.8279	20.1775	18.9017	17.6813	16.6421	15.6596	14.5202	13.8717	12.9008	12.0266	11.1652	10.3611	9.5315	8.5548	7.7641	7.2351	6.4496	5.6071	5.151	4.6908	4.2658	3.8663	3.8316	3.4371	3.0366	2.712	1.4907	1.4873
548	44.1833	36.1566	28.2441	27.0215	33.5906	27.1179	29.3595	28.7953	29.4279	28.8162	26.8963	25.6565	24.7208	23.6915	23.1465	22.7522	22.7832	22.8846	22.6028	22.7575	22.4135	21.796	21.6288	20.7707	20.6597	20.328	19.6654	18.5062	17.2207	16.2872	15.0823	14.101	13.4122	12.577	11.6404	10.7453	10.3936	9.4766	8.6759	7.7733	7.048	6.3654	5.5371	5.085	4.6311	4.1998	3.828	3.8769	3.5107	3.1765	2.7364	2.0269	2.0223
550	45.5191	35.6822	29.2682	29.3764	32.2621	29.0607	27.6232	27.1064	27.7535	28.2805	26.4522	24.9179	24.014	22.5667	22.491	22.2482	22.1526	21.8971	21.4278	22.0867	21.5319	21.2608	20.5199	20.231	19.9807	19.8817	18.8642	17.8353	16.8044	15.8994	14.6799	13.7144	13.1199	12.1402	11.5167	10.7297	9.9445	9.1215	8.3598	7.6571	6.979	6.3524	5.6897	5.0156	4.5684	4.1352	3.7876	3.6811	3.4408	3.1592	2.6844	2.2482	2.2431
552	43.2598	35.2848	31.9415	31.8773	31.7468	28.5116	25.9101	25.4574	26.1043	27.0749	25.4704	24.0441	23.3686	22.535	21.457	21.3409	21.8417	21.398	21.1704	21.228	21.1917	20.6378	20.1187	19.553	19.3642	19.4591	18.6588	17.5632	16.4563	15.2335	14.6269	13.4968	12.5565	11.8464	11.2396	10.5232	9.6165	9.039	8.289	7.4697	6.6495	6.3136	5.5913	4.9567	4.5175	4.0813	3.7555	3.4123	3.3	3.126	2.6903	2.3999	2.3945
554	40.0687	34.8586	31.2746	28.1637	25.4524	28.257	24.135	23.7655	24.3947	25.9956	24.6515	23.4308	23.1709	21.813	21.1654	20.8636	20.5137	20.7302	20.6184	20.309	20.167	19.8283	19.34	18.9885	18.7708	18.6975	17.7679	17.3489	15.7173	14.9661	14.0924	12.9646	12.6065	11.5988	10.7561	10.1853	9.3891	8.6626	8.2194	7.4228	6.696	6.0238	5.5954	4.8938	4.4675	4.0239	3.7206	3.3541	3.3406	3.0124	2.7933	2.476	2.4704
556	40.5315	34.6215	26.2047	19.0622	12.9657	28.2737	22.3062	22.0224	24.1978	24.7655	23.4801	22.8635	22.4313	21.109	20.8676	20.2591	20.1105	19.9639	20.1848	19.8514	19.3354	19.3238	18.7961	18.4427	18.3473	18.1888	17.4501	16.7079	15.3236	14.3425	13.7046	12.7676	12.336	11.2944	10.5997	9.9762	9.1087	8.5813	7.769	7.3214	6.5774	6.131	5.4599	5.0966	4.4157	3.9937	3.672	3.2939	3.2467	3.0463	2.6919	2.4052	2.3998
558	40.4336	36.9188	27.4163	19.3659	15.3181	27.4652	20.4217	22.6956	22.9163	23.4961	23.4511	22.4324	21.3378	20.044	20.1086	19.6461	19.4811	19.8129	19.2253	19.2154	18.8338	18.7048	18.0796	17.7315	17.8221	17.4365	16.9291	16.0598	14.9937	14.1553	13.5458	12.5175	11.7542	11.0532	10.3089	9.7347	8.8874	8.4563	7.7592	7.2166	6.436	5.9412	5.4438	4.9255	4.3617	3.9621	3.5964	3.2314	3.0575	3.0693	2.7037	2.4917	2.486
560	37.9865	38.4579	27.0388	18.9316	17.7411	26.3352	22.0198	21.3835	21.586	22.178	22.8266	21.9702	19.997	19.6678	19.7494	19.1346	18.7098	18.5619	18.9868	18.6021	18.3478	18.2154	17.8509	17.3556	17.2842	17.07	16.3392	15.7697	14.3558	13.7997	13.0923	12.0385	11.2469	10.6175	10.091	9.2935	8.6377	8.2497	7.4863	6.8834	6.2744	5.7466	5.3406	4.8728	4.3041	3.9027	3.5169	3.1655	2.787	2.9919	2.677	2.4325	2.4269
562	38.1749	34.3505	26.6363	20.0493	20.2341	26.3493	21.9524	20.0223	20.2285	20.8104	21.8401	20.9149	20.098	19.3823	18.4809	18.336	18.2981	18.0821	18.0649	17.9412	17.4586	17.6368	17.0037	16.5018	16.6514	16.5273	15.8139	15.0751	14.1741	13.3758	12.3866	11.7062	11.0033	10.3269	9.8112	9.2619	8.5903	8.1312	7.5325	6.6463	6.1594	5.6839	5.1627	4.6726	4.2425	3.8268	3.4533	3.0961	2.7634	2.9032	2.773	2.3959	2.3904
564	38.942	32.8801	26.2101	22.7943	22.7984	22.6389	22.2603	18.6134	18.8458	19.3946	20.2959	20.0481	19.9243	18.058	17.6601	17.6053	17.4529	17.6388	16.9939	17.5435	17.0906	17.0054	16.5411	16.2914	15.9683	15.7809	15.4454	14.6256	13.5427	12.946	12.2441	11.1302	10.6518	10.1407	9.4124	8.9181	8.2649	7.8249	7.1164	6.5811	6.0778	5.5814	5.1476	4.7439	4.2656	3.747	3.3862	3.0275	2.7378	2.7281	2.75	2.4997	2.494
566	35.0313	33.5307	25.7761	23.4932	21.4955	19.6382	22.0079	17.1675	17.4269	18.7668	19.3051	19.6859	18.4562	17.7111	17.7384	17.1515	17.0044	16.9834	16.6491	16.8589	16.5105	16.0322	16.0354	15.6328	15.339	15.3204	14.7098	13.9104	13.074	12.3277	11.8799	10.8358	10.3211	9.6904	9.0681	8.4424	7.9253	7.4872	6.9768	6.205	5.9412	5.4223	5.0125	4.6293	4.2124	3.6655	3.32	2.9595	2.712	2.5278	2.5936	2.3976	2.3921
568	30.4409	34.0219	30.3487	22.0315	14.9397	8.8104	22.2982	15.6816	17.6646	17.6072	18.2875	19.3623	18.0115	17.1639	16.7448	16.5979	16.4662	16.6124	16.0674	16.365	15.9842	15.8159	15.3149	14.7911	15.1775	14.882	14.2148	13.5416	12.8388	11.9482	11.6297	10.6279	10.3788	9.4196	9.0268	8.3388	7.7695	7.1465	6.8461	6.2824	5.7425	5.4429	4.8576	4.4265	4.0018	3.582	3.2565	2.8899	2.6858	2.475	2.5687	2.3124	2.3071
570	33.4924	31.6104	30.2167	21.8801	14.7724	11.3792	22.2536	16.7691	16.4979	16.4046	17.2307	18.2959	17.332	16.5206	16.3587	16.2458	15.638	15.986	15.4677	15.3953	15.3144	15.0932	14.9924	14.661	14.3384	14.6047	13.7886	13.068	12.2835	11.512	11.0228	10.3315	9.7758	9.2507	8.7013	8.0656	7.6373	7.0002	6.7321	6.1297	5.5895	5.0988	4.7148	4.4142	4.0871	3.5679	3.1895	2.8644	2.6497	2.4195	2.4206	2.2494	2.2442
572	29.4987	31.7622	29.7859	21.881	14.6797	14.0573	21.7784	17.7696	15.322	15.2898	16.1695	17.1258	16.6683	16.1777	15.9175	15.4234	15.2278	14.959	15.2183	15.3826	14.8401	14.7025	14.3569	14.2684	13.8856	13.8609	13.454	12.7921	12.0236	11.2182	10.5434	9.7546	9.5545	9.0168	8.3998	7.9306	7.3699	6.9461	6.2785	5.9016	5.3905	4.9902	4.669	4.4176	3.9991	3.6248	3.1257	2.843	2.6011	2.3663	2.2982	2.244	2.2389
574	28.0019	30.6414	27.2093	21.869	16.1216	16.826	23.1076	17.8271	14.0981	14.2289	15.0633	16.4033	15.8415	15.9387	15.3622	14.5804	14.6935	14.859	14.653	14.5976	14.5079	14.2739	13.841	13.5148	13.4356	13.3308	12.8688	12.2933	11.7539	10.9281	10.2028	9.7658	9.0988	8.73	8.2839	7.8259	7.349	6.7083	6.2995	5.75	5.3485	4.8413	4.569	4.2793	3.87	3.6163	3.0579	2.8031	2.5493	2.3098	2.0619	2.0719	2.0671
576	31.4256	26.2571	27.5778	21.844	19.1811	19.6857	20.4547	18.3314	12.8261	13.125	15.5496	15.6195	15.4218	14.6274	14.6208	14.5344	14.3828	14.3817	13.9655	14.1046	13.6786	13.8214	13.0495	13.0473	13.0978	12.6393	12.469	12.0373	11.2442	10.6534	9.972	9.4433	9.0195	8.4566	7.951	7.5004	6.8128	6.3836	6.0278	5.6472	5.1868	4.8136	4.2864	4.0411	3.645	3.4133	2.986	2.7519	2.4939	2.2501	2.0079	2.1977	2.1927
578	28.0843	25.1256	25.8123	21.8058	19.5584	17.5024	16.0033	18.1104	11.5063	14.7519	14.266	14.8015	15.1852	14.3578	13.9124	13.7903	13.8693	13.9084	13.6817	13.3156	13.2997	13.0593	12.8232	12.5148	12.5492	12.562	12.2023	11.4437	10.8649	10.2135	9.6282	9.1585	8.5725	7.9386	7.7119	7.2151	6.7715	6.203	5.8927	5.4799	4.9907	4.7288	4.2967	4.1094	3.7557	3.5017	3.122	2.6976	2.4352	2.2056	1.9509	1.9695	1.965
580	24.1301	22.8009	22.4945	21.7603	16.7881	12.4382	8.8637	18.686	14.2636	13.4946	12.9345	13.9496	14.911	13.8854	13.6581	13.5245	13.2734	13.1391	13.2194	13.0564	12.8344	12.7542	12.4224	12.3333	12.0371	12.0667	11.6015	11.3614	10.6196	10.0751	9.3964	8.7309	8.3285	7.7986	7.4075	6.8724	6.6468	6.1025	5.7469	5.4029	4.9458	4.5888	4.1133	3.9688	3.6439	3.3375	3.0789	2.64	2.3827	2.1678	1.8911	1.9022	1.8979
582	23.5266	21.6578	19.1605	20.3691	15.9999	12.1669	10.5499	17.6867	13.4747	12.1951	11.8226	13.0678	14.1242	13.5263	13.1108	13.2441	13.1854	12.6921	12.6672	12.5737	12.7385	12.2324	12.1522	11.9081	11.6416	11.7329	11.4046	10.654	10.1482	9.66	9.1985	8.1811	7.9923	7.6323	7.2117	6.7992	6.5613	5.9759	5.4594	5.2301	4.9289	4.5475	4.0896	3.8165	3.5708	3.2877	2.9725	2.5801	2.3469	2.1284	1.8289	1.5313	1.5278
584	23.7637	19.8068	20.4589	20.3896	16.289	12.3918	12.2876	18.1994	14.4571	10.8492	10.9377	12.1516	13.7149	13.0828	12.5711	12.6844	12.3907	12.212	12.4957	12.2578	11.9773	12.1022	11.3775	11.2336	11.2648	11.0037	10.9724	10.3702	9.6986	9.3948	8.731	8.2214	7.9781	7.3377	7.1568	6.7086	6.0651	5.9523	5.4658	5.0223	4.5731	4.2053	3.88	3.6992	3.5808	3.2637	2.8969	2.5919	2.3087	2.0679	1.7638	1.3378	1.2497
586	21.0056	18.4051	19.0221	19.8145	16.5764	13.4449	14.0748	18.8908	14.9964	9.4555	10.0184	12.3658	12.9653	12.5248	12.5921	12.1697	12.1127	12.0647	12.1959	11.685	11.684	11.6382	11.3089	11.0606	10.921	10.8859	10.5739	10.0331	9.4564	8.8682	8.7332	7.846	7.511	7.2899	6.9426	6.3882	6.0717	5.6418	5.2379	4.8444	4.482	4.0938	3.9251	3.6836	3.4378	3.094	2.9017	2.6984	2.2679	2.0043	1.7008	1.1374	0.8296
588	18.5895	18.6424	18.7729	18.2508	16.8623	15.3661	15.911	16.8744	14.4603	8.0148	10.8262	11.4744	12.1851	12.1063	11.5594	11.7518	11.5884	11.7329	11.503	11.3821	11.1427	11.2706	11.0913	10.7913	10.805	10.5233	10.0969	9.9923	9.2508	8.7575	8.4428	7.659	7.1571	6.9379	6.584	6.1365	5.8949	5.5555	5.1018	4.7285	4.3091	4.0292	3.7954	3.6325	3.3525	3.0845	2.8872	2.4891	2.2244	1.9401	1.6374	0.9301	0.1542
590	19.3385	16.3386	17.6901	18.7177	17.1493	15.8612	15.0027	14.6476	14.1027	9.3832	9.9432	10.5519	11.3765	11.5193	11.4712	11.1975	11.0268	10.9948	11.2578	11.1586	11.1476	10.5961	10.4166	10.3299	10.1411	10.1526	9.8698	9.4866	9.0573	8.3735	8.1684	7.435	7.2543	6.6898	6.346	5.9947	5.6639	5.3157	5.0958	4.4681	4.2968	4.0064	3.7381	3.4728	3.3088	2.9309	2.7907	2.5416	2.1786	1.8785	1.5027	0.7162	0
592	21.059	16.0644	19.5863	18.2678	18.4828	14.2588	10.8237	7.9835	13.7173	10.833	9.063	9.6987	10.5779	11.2649	11.3142	10.61	10.8234	10.7334	10.5296	10.487	10.4162	10.3424	10.3489	9.8554	9.816	9.6938	9.7885	9.141	8.1652	8.0138	7.901	7.2826	6.9862	6.5757	6.1473	5.977	5.541	5.1807	4.8484	4.5098	4.2398	3.9227	3.5357	3.4064	3.1893	2.8957	2.7277	2.4745	2.2901	1.8209	1.2984	0.7031	0
594	22.9542	16.9311	16.1476	17.4345	19.7915	15.1129	10.598	9.7676	14.9767	10.5166	8.1456	8.8757	9.7437	10.9167	10.9268	10.885	10.6648	10.5485	10.5633	10.082	10.4115	9.9404	9.5992	9.5581	9.8027	9.6385	9.2616	8.8867	8.3046	7.8562	7.3366	6.9824	6.5654	6.4305	5.9575	5.5931	5.3784	5.0198	4.6225	4.3962	3.9387	3.681	3.4819	3.3845	3.0876	2.846	2.6897	2.5562	2.3309	1.7599	1.2376	0	0
596	17.486	15.8802	15.3315	17.854	20.149	13.8699	12.2773	11.6174	15.3403	11.4666	7.1939	8.0216	9.5473	10.3358	9.9345	10.3202	9.8968	10.3756	10.0958	9.8953	9.9487	9.9464	9.6551	9.3141	9.211	9.395	9.1261	8.5897	8.2321	7.8001	7.5192	6.7031	6.4771	6.1335	5.8518	5.5212	5.1532	4.843	4.5251	4.1649	3.9951	3.734	3.331	3.186	2.9317	2.8104	2.5595	2.3498	2.1047	1.6964	1.2911	0	0
598	17.5439	16.8509	13.7721	17.4237	17.9997	15.4821	14.253	13.5354	15.6198	10.932	6.2068	7.9807	8.9338	9.7318	9.8796	10.0027	9.8893	9.7287	9.8929	9.7302	9.748	9.5907	9.2418	8.9807	8.8568	8.8879	8.7047	8.1395	7.935	7.2689	7.0416	6.5663	6.192	5.9591	5.5162	5.1116	5.0397	4.8271	4.3935	4.3571	3.8642	3.6684	3.5483	3.2383	2.9038	2.6572	2.5463	2.3884	2.0798	1.955	0	0	0
600	17.9469	12.8123	13.9906	15.5517	19.5507	17.6535	16.2948	15.5178	15.3523	11.2405	6.3134	7.3435	8.2926	9.0998	9.9046	9.6733	9.6789	9.3583	9.6099	9.6022	9.093	9.5221	9.0901	8.9035	8.7082	8.6458	8.4531	8.2346	7.5281	7.4641	6.878	6.4209	6.1326	5.6005	5.6472	5.0756	4.961	4.5639	4.3229	4.0777	3.5785	3.5346	3.2859	3.082	3.0001	2.7321	2.519	2.3537	2.0364	1.9225	0	0	0
