Description	E1-6.5																																																				
EEM type	"Dilution- & Scatter-corrected, Calibrated Data (ppb QSE)"																																																				
Scan date	10/1/2013 13:05																																																				
Excitation	240-500nm by 5nm																																																				
Emission	290-600nm by 2nm																																																				
Calibration	Michael_Fluoromax4_April08 (07-Apr-2008)																																																				
Slit settings	"5nm Excitation, 5nm Emission"																																																				
Dilution	5																																																				
Row 1	Excitation(nm)																																																				
Col 1	Emission(nm)																																																				
Data	Fluorescence(ppb QSE)																																																				
																																																					
	240	245	250	255	260	265	270	275	280	285	290	295	300	305	310	315	320	325	330	335	340	345	350	355	360	365	370	375	380	385	390	395	400	405	410	415	420	425	430	435	440	445	450	455	460	465	470	475	480	485	490	495	500
290	5.8437	5.534	3.1745	2.3396	1.6228	0.9991	0.4717	0	0	0	0	0	0	0	0	0	0	0	0	0	0	0	0	0	0	0	0	0	0	0	0	0	0	0	0	0	0	0	0	0	0	0	0	0	0	0	0	0	0	0	0	0	0
292	6.4888	3.9884	2.9828	3.4744	2.6779	1.9787	1.2592	0.5037	0	0	0	0	0	0	0	0	0	0	0	0	0	0	0	0	0	0	0	0	0	0	0	0	0	0	0	0	0	0	0	0	0	0	0	0	0	0	0	0	0	0	0	0	0
294	10.0169	3.9804	5.6149	4.5845	3.7102	2.6383	1.6064	0.9965	0	0	0	0	0	0	0	0	0	0	0	0	0	0	0	0	0	0	0	0	0	0	0	0	0	0	0	0	0	0	0	0	0	0	0	0	0	0	0	0	0	0	0	0	0
296	8.8976	7.188	7.3556	5.6622	4.2333	2.9834	2.4673	1.4764	0	0	0	0	0	0	0	0	0	0	0	0	0	0	0	0	0	0	0	0	0	0	0	0	0	0	0	0	0	0	0	0	0	0	0	0	0	0	0	0	0	0	0	0	0
298	15.8644	10.7859	7.8801	6.9448	4.5781	3.3145	3.3021	1.9414	0.6677	0	0	0	0	0	0	0	0	0	0	0	0	0	0	0	0	0	0	0	0	0	0	0	0	0	0	0	0	0	0	0	0	0	0	0	0	0	0	0	0	0	0	0	0
300	16.77	11.0241	10.2853	7.6713	4.9115	4.1753	3.9298	2.3928	1.3167	0	0	0	0	0	0	0	0	0	0	0	0	0	0	0	0	0	0	0	0	0	0	0	0	0	0	0	0	0	0	0	0	0	0	0	0	0	0	0	0	0	0	0	0
302	15.7386	13.7318	12.8414	10.2132	5.3181	5.0915	4.4287	3.3927	1.9786	0	0	0	0	0	0	0	0	0	0	0	0	0	0	0	0	0	0	0	0	0	0	0	0	0	0	0	0	0	0	0	0	0	0	0	0	0	0	0	0	0	0	0	0
304	18.0377	17.3962	10.9062	10.6912	4.237	6.011	4.9293	4.3963	2.6427	0.7336	0	0	0	0	0	0	0	0	0	0	0	0	0	0	0	0	0	0	0	0	0	0	0	0	0	0	0	0	0	0	0	0	0	0	0	0	0	0	0	0	0	0	0
306	17.1961	18.4558	13.819	9.4754	8.5262	6.9305	5.9608	5.2281	3.3076	1.469	0	0	0	0	0	0	0	0	0	0	0	0	0	0	0	0	0	0	0	0	0	0	0	0	0	0	0	0	0	0	0	0	0	0	0	0	0	0	0	0	0	0	0
308	23.9484	18.4624	13.332	10.4522	8.7695	7.8484	6.9917	5.8862	4.14	2.2053	0	0	0	0	0	0	0	0	0	0	0	0	0	0	0	0	0	0	0	0	0	0	0	0	0	0	0	0	0	0	0	0	0	0	0	0	0	0	0	0	0	0	0
310	16.2079	18.1963	14.7594	10.8401	10.7549	8.7915	8.0243	6.5452	4.9738	2.9426	0.8942	0	0	0	0	0	0	0	0	0	0	0	0	0	0	0	0	0	0	0	0	0	0	0	0	0	0	0	0	0	0	0	0	0	0	0	0	0	0	0	0	0	0
312	21.8035	25.5753	19.8225	12.5055	10.5488	10.8634	9.004	7.327	5.7182	3.659	1.7791	0	0	0	0	0	0	0	0	0	0	0	0	0	0	0	0	0	0	0	0	0	0	0	0	0	0	0	0	0	0	0	0	0	0	0	0	0	0	0	0	0	0
314	23.1207	19.5747	17.3338	14.5173	9.0047	10.966	9.9731	8.1002	6.399	4.7262	2.6547	0	0	0	0	0	0	0	0	0	0	0	0	0	0	0	0	0	0	0	0	0	0	0	0	0	0	0	0	0	0	0	0	0	0	0	0	0	0	0	0	0	0
316	23.43	22.119	21.815	15.1867	11.0832	10.2705	12.3167	8.8354	7.0487	5.7629	3.5093	0.7328	0	0	0	0	0	0	0	0	0	0	0	0	0	0	0	0	0	0	0	0	0	0	0	0	0	0	0	0	0	0	0	0	0	0	0	0	0	0	0	0	0
318	22.1037	21.961	19.7255	14.3542	12.2289	11.6533	12.3744	9.5244	8.0037	6.6411	4.3341	1.4479	0	0	0	0	0	0	0	0	0	0	0	0	0	0	0	0	0	0	0	0	0	0	0	0	0	0	0	0	0	0	0	0	0	0	0	0	0	0	0	0	0
320	24.4597	25.6952	21.3827	14.1903	12.2415	11.7086	13.3048	10.1941	8.9335	7.3806	4.62	2.1455	0	0	0	0	0	0	0	0	0	0	0	0	0	0	0	0	0	0	0	0	0	0	0	0	0	0	0	0	0	0	0	0	0	0	0	0	0	0	0	0	0
322	21.836	23.3072	18.4086	17.5257	12.3643	10.9411	12.8951	11.9452	9.7924	8.0622	4.8748	2.8123	0.7695	0	0	0	0	0	0	0	0	0	0	0	0	0	0	0	0	0	0	0	0	0	0	0	0	0	0	0	0	0	0	0	0	0	0	0	0	0	0	0	0
324	24.2674	29.1152	22.7523	17.196	13.5962	12.8799	12.857	11.4438	10.6165	8.2364	5.2848	3.455	1.5125	0	0	0	0	0	0	0	0	0	0	0	0	0	0	0	0	0	0	0	0	0	0	0	0	0	0	0	0	0	0	0	0	0	0	0	0	0	0	0	0
326	27.8442	21.4162	22.2701	17.6224	13.4322	11.1683	12.6842	13.9624	11.4008	8.3958	5.8387	4.2082	2.2282	0	0	0	0	0	0	0	0	0	0	0	0	0	0	0	0	0	0	0	0	0	0	0	0	0	0	0	0	0	0	0	0	0	0	0	0	0	0	0	0
328	28.2077	23.9743	21.6679	16.1877	13.9162	12.5716	13.9537	12.771	11.1798	8.54	6.3659	4.9293	2.9154	0.7429	0	0	0	0	0	0	0	0	0	0	0	0	0	0	0	0	0	0	0	0	0	0	0	0	0	0	0	0	0	0	0	0	0	0	0	0	0	0	0
330	28.5221	24.9477	20.7486	18.1474	15.3996	12.7024	13.8436	13.3286	11.8753	8.6725	6.9945	5.5761	3.5747	1.4574	0	0	0	0	0	0	0	0	0	0	0	0	0	0	0	0	0	0	0	0	0	0	0	0	0	0	0	0	0	0	0	0	0	0	0	0	0	0	0
332	30.2201	24.8369	23.0432	16.41	14.2636	13.1731	13.3134	13.5186	12.0465	8.6992	7.5124	6.0851	4.1906	2.1207	0	0	0	0	0	0	0	0	0	0	0	0	0	0	0	0	0	0	0	0	0	0	0	0	0	0	0	0	0	0	0	0	0	0	0	0	0	0	0
334	28.2415	25.2669	22.6579	19.8399	14.2059	13.3633	11.4338	13.1475	12.8821	10.6901	7.9851	6.5523	4.7618	2.7403	0.8145	0	0	0	0	0	0	0	0	0	0	0	0	0	0	0	0	0	0	0	0	0	0	0	0	0	0	0	0	0	0	0	0	0	0	0	0	0	0
336	29.7851	27.0552	22.8655	19.4275	15.3188	13.827	11.7955	13.2293	13.2907	10.307	8.4213	7.0115	5.2843	3.3196	1.5786	0	0	0	0	0	0	0	0	0	0	0	0	0	0	0	0	0	0	0	0	0	0	0	0	0	0	0	0	0	0	0	0	0	0	0	0	0	0
338	26.6949	23.4062	21.4246	15.7928	15.3164	13.9249	12.772	12.6869	12.9712	11.4325	8.823	7.4362	5.7612	4.2164	2.2949	0	0	0	0	0	0	0	0	0	0	0	0	0	0	0	0	0	0	0	0	0	0	0	0	0	0	0	0	0	0	0	0	0	0	0	0	0	0
340	29.8678	26.5397	21.3452	19.2746	14.58	14.3316	12.8447	13.3411	13.1919	11.7886	9.3854	7.8198	6.1971	5.0495	2.9624	0.95	0	0	0	0	0	0	0	0	0	0	0	0	0	0	0	0	0	0	0	0	0	0	0	0	0	0	0	0	0	0	0	0	0	0	0	0	0
342	29.3254	25.432	23.6858	19.0293	15.5959	14.0044	14.3025	12.9389	13.573	11.8287	10.3984	8.2069	6.9616	5.7389	3.6007	1.8476	0	0	0	0	0	0	0	0	0	0	0	0	0	0	0	0	0	0	0	0	0	0	0	0	0	0	0	0	0	0	0	0	0	0	0	0	0
344	34.6433	28.5657	23.8522	19.9876	16.7544	14.4317	14.1117	13.8661	14.0218	12.7402	10.7332	8.5595	7.6727	6.2726	4.5716	2.6927	0.5256	0	0	0	0	0	0	0	0	0	0	0	0	0	0	0	0	0	0	0	0	0	0	0	0	0	0	0	0	0	0	0	0	0	0	0	0
346	29.1362	27.0973	26.6383	20.5301	16.617	14.2375	15.673	13.5575	14.1741	13.6142	11.9503	9.228	8.3524	6.783	5.494	3.4945	1.5237	0	0	0	0	0	0	0	0	0	0	0	0	0	0	0	0	0	0	0	0	0	0	0	0	0	0	0	0	0	0	0	0	0	0	0	0
348	38.0875	28.9799	26.0279	20.9716	17.0417	15.3127	14.7472	14.5482	14.3239	13.4689	12.4578	11.0644	9.0076	7.6291	6.2912	4.2597	2.4731	1.0291	0	0	0	0	0	0	0	0	0	0	0	0	0	0	0	0	0	0	0	0	0	0	0	0	0	0	0	0	0	0	0	0	0	0	0
350	34.6032	33.5739	26.1817	21.8357	17.3374	16.2517	16.042	14.9734	14.0094	14.3088	12.5942	11.1335	9.6186	8.4235	6.9578	5.1129	3.3722	1.8997	0	0	0	0	0	0	0	0	0	0	0	0	0	0	0	0	0	0	0	0	0	0	0	0	0	0	0	0	0	0	0	0	0	0	0
352	37.3571	32.4467	27.6935	21.8097	18.5824	16.5556	15.9544	16.3469	15.454	13.7616	14.3188	13.0519	11.0831	9.1678	7.5825	5.9169	4.2219	2.5269	1.2749	0	0	0	0	0	0	0	0	0	0	0	0	0	0	0	0	0	0	0	0	0	0	0	0	0	0	0	0	0	0	0	0	0	0
354	36.0136	30.6014	27.7289	24.5536	19.5269	16.6498	16.9338	15.7575	16.8138	15.2175	14.0266	13.1989	11.6422	9.8607	8.2882	6.6709	5.2462	3.7244	1.8843	0.2469	0	0	0	0	0	0	0	0	0	0	0	0	0	0	0	0	0	0	0	0	0	0	0	0	0	0	0	0	0	0	0	0	0
356	38.0628	33.53	27.335	23.2945	19.3871	17.6207	17.6164	16.584	16.9916	15.4286	15.381	14.17	13.1546	10.5381	9.1932	7.8386	6.436	4.8695	3.0841	1.0953	0	0	0	0	0	0	0	0	0	0	0	0	0	0	0	0	0	0	0	0	0	0	0	0	0	0	0	0	0	0	0	0	0
358	38.0345	35.0158	28.737	25.4664	21.3734	19.6801	18.6829	17.6495	17.7198	17.0867	15.4211	15.4352	14.2366	12.2315	10.2929	8.9725	7.5625	5.9748	4.3011	2.2268	0.8672	0	0	0	0	0	0	0	0	0	0	0	0	0	0	0	0	0	0	0	0	0	0	0	0	0	0	0	0	0	0	0	0
360	42.5853	35.1367	31.313	26.4068	21.8446	18.9318	18.4877	18.7041	18.2887	17.5917	16.9609	15.61	14.8969	13.1848	11.3363	10.0254	8.6344	7.0277	5.3979	3.1941	1.3066	0	0	0	0	0	0	0	0	0	0	0	0	0	0	0	0	0	0	0	0	0	0	0	0	0	0	0	0	0	0	0	0
362	43.9947	36.455	34.6594	28.5732	24.2395	21.3072	19.7794	19.0721	18.3494	18.1165	17.869	17.4799	16.5169	15.1446	12.4107	11.0886	9.6656	8.1645	6.4874	4.2623	2.2329	0.4633	0	0	0	0	0	0	0	0	0	0	0	0	0	0	0	0	0	0	0	0	0	0	0	0	0	0	0	0	0	0	0
364	46.0637	39.4091	35.0756	28.4524	24.0824	22.178	21.1835	19.2475	19.7749	19.274	19.2484	17.7361	17.4445	15.7515	14.2288	12.1141	10.6608	9.4195	7.5406	5.4481	2.9886	1.3353	0	0	0	0	0	0	0	0	0	0	0	0	0	0	0	0	0	0	0	0	0	0	0	0	0	0	0	0	0	0	0
366	46.7471	41.6355	36.8123	31.7054	26.8217	23.5389	22.096	21.0123	21.1634	20.9481	19.76	19.1608	18.1783	17.2525	15.5415	13.1127	11.7836	10.64	8.5645	6.3502	3.8168	2.0774	0.5798	0	0	0	0	0	0	0	0	0	0	0	0	0	0	0	0	0	0	0	0	0	0	0	0	0	0	0	0	0	0
368	46.7178	43.2884	39.5657	33.1036	27.976	24.512	22.6936	21.9411	21.5858	21.6474	21.1177	20.556	19.8151	18.3191	17.3008	14.0872	12.9545	11.613	9.5139	7.2285	5.161	2.446	1.2373	0	0	0	0	0	0	0	0	0	0	0	0	0	0	0	0	0	0	0	0	0	0	0	0	0	0	0	0	0	0
370	46.9004	45.7017	39.3689	34.7433	29.8324	25.6472	24.4406	23.015	21.8536	22.8336	22.0082	21.6907	20.6099	20.6431	18.6272	15.9589	14.0863	12.5531	10.3369	8.0784	5.8196	3.8477	2.0111	0	0	0	0	0	0	0	0	0	0	0	0	0	0	0	0	0	0	0	0	0	0	0	0	0	0	0	0	0	0
372	52.6117	49.3527	42.6594	36.3975	31.8752	28.2277	24.9192	24.0482	24.3015	24.2856	23.7773	23.3132	22.7564	21.4865	20.2703	18.2216	15.2572	13.435	11.1886	9.2625	7.0487	4.583	2.7289	0.9312	0	0	0	0	0	0	0	0	0	0	0	0	0	0	0	0	0	0	0	0	0	0	0	0	0	0	0	0	0
374	58.9893	52.6725	44.5376	39.1058	32.8815	29.6259	27.5483	26.5927	25.928	25.8195	25.4505	24.4896	24.594	22.7517	22.0723	19.7098	16.4025	14.568	12.6536	10.7357	8.2526	5.8616	3.306	1.6221	0	0	0	0	0	0	0	0	0	0	0	0	0	0	0	0	0	0	0	0	0	0	0	0	0	0	0	0	0
376	56.0564	52.5641	44.7726	41.3984	35.5311	30.676	30.1166	27.3941	26.9273	26.1027	26.5646	26.6598	26.0875	24.7132	23.011	21.0248	18.1707	15.9767	14.0754	11.8823	9.4233	7.0014	4.1963	2.3146	0.4118	0	0	0	0	0	0	0	0	0	0	0	0	0	0	0	0	0	0	0	0	0	0	0	0	0	0	0	0
378	65.5971	57.09	50.9902	43.5392	37.2577	32.9263	30.401	29.2484	28.9194	27.9336	28.2845	27.66	28.1442	27.0307	25.3079	22.871	20.337	17.3362	15.4499	12.9899	10.5573	8.1452	5.2471	2.9345	1.3746	0	0	0	0	0	0	0	0	0	0	0	0	0	0	0	0	0	0	0	0	0	0	0	0	0	0	0	0
380	65.9123	58.9285	52.3457	44.7698	38.2765	34.6037	31.7716	30.0738	29.6655	29.23	29.0888	30.0752	29.4712	28.7069	26.796	25.0697	22.2213	18.659	16.5069	14.0739	11.6616	9.2598	6.5335	3.7961	2.1287	0.3752	0	0	0	0	0	0	0	0	0	0	0	0	0	0	0	0	0	0	0	0	0	0	0	0	0	0	0
382	70.8692	61.1343	55.0646	48.6532	42.3085	35.5232	33.5268	32.2858	29.6672	30.4346	31.0237	31.862	31.6241	30.4404	28.6944	26.6775	23.5982	20.0362	17.614	15.2033	12.9704	10.3924	7.5661	4.8702	2.8602	1.1593	0	0	0	0	0	0	0	0	0	0	0	0	0	0	0	0	0	0	0	0	0	0	0	0	0	0	0
384	70.3358	64.681	56.8542	48.8734	42.3865	38.3985	35.1888	32.6098	32.9709	32.0219	32.7945	32.845	32.8036	31.901	30.4211	28.052	25.3629	22.3207	18.7023	16.3138	14.2581	11.5068	8.5777	5.8076	3.3989	1.8217	0	0	0	0	0	0	0	0	0	0	0	0	0	0	0	0	0	0	0	0	0	0	0	0	0	0	0
386	78.0241	65.6133	58.4457	51.8243	45.8752	40.0678	36.0087	34.4985	35.0967	33.9241	34.2365	34.5582	34.4637	33.9088	32.4152	29.8757	27.074	24.1141	19.8457	17.6469	15.497	12.6499	9.6086	7.147	4.3709	2.553	0.7947	0	0	0	0	0	0	0	0	0	0	0	0	0	0	0	0	0	0	0	0	0	0	0	0	0	0
388	80.9692	70.1839	62.2906	52.6847	46.4308	41.093	37.448	35.6783	34.9698	34.877	34.6241	35.6898	36.3472	35.2052	34.1244	31.2591	28.7379	25.6156	21.0581	19.0401	16.7026	13.7421	10.6708	8.0072	5.5895	3.2597	1.42	0	0	0	0	0	0	0	0	0	0	0	0	0	0	0	0	0	0	0	0	0	0	0	0	0	0
390	76.5983	71.677	63.6697	56.2671	49.2948	43.5734	40.3124	37.476	36.5211	35.8091	37.4948	37.5717	37.8078	37.9642	35.8742	33.5286	30.5998	27.3152	24.0269	20.4327	17.9078	14.8338	11.7324	8.8354	6.5976	4.0685	2.1072	0.3942	0	0	0	0	0	0	0	0	0	0	0	0	0	0	0	0	0	0	0	0	0	0	0	0	0
392	82.8026	78.6958	65.6343	59.7281	51.6972	44.6436	41.4974	38.9561	38.8676	37.065	38.7223	39.6726	39.7683	38.6387	37.3563	35.6337	31.8679	28.3151	25.5108	21.6942	18.9037	15.8296	12.8832	10.0835	7.4376	5.0338	2.9587	1.2499	0	0	0	0	0	0	0	0	0	0	0	0	0	0	0	0	0	0	0	0	0	0	0	0	0
394	83.0962	75.2547	70.8955	60.2389	52.7889	46.0297	42.4102	39.2685	39.186	38.138	39.8549	40.4269	41.6378	40.9075	39.4587	36.6392	33.6002	30.3734	27.2071	22.9383	20.0589	17.1519	14.1979	11.3153	8.3822	5.9442	3.6691	2.1444	0.1651	0	0	0	0	0	0	0	0	0	0	0	0	0	0	0	0	0	0	0	0	0	0	0	0
396	91.827	82.6569	71.0359	63.253	54.3563	48.1765	44.8946	41.7566	41.179	40.7102	40.7121	42.8869	43.7459	42.6978	41.3402	38.0999	35.7726	32.6218	28.9335	25.0444	21.4035	18.4851	15.547	12.5503	9.702	7.4035	4.4495	2.7101	0.7785	0	0	0	0	0	0	0	0	0	0	0	0	0	0	0	0	0	0	0	0	0	0	0	0
398	90.4144	84.1747	73.0098	66.7685	58.3888	51.4014	46.2037	43.7038	43.1865	42.4185	42.3868	43.8918	45.303	45.0601	42.6731	40.5521	37.6099	34.4617	30.7279	27.113	22.77	19.8643	16.909	13.7944	10.9403	7.9731	5.6404	3.2943	1.8099	0	0	0	0	0	0	0	0	0	0	0	0	0	0	0	0	0	0	0	0	0	0	0	0
400	96.704	86.6543	77.3225	69.1514	60.7041	53.4209	47.6429	44.4136	43.363	43.0896	43.7324	46.1173	46.9704	47.0732	45.7422	42.5597	39.4134	35.9995	32.7766	28.7929	24.1272	21.2487	18.1658	15.06	12.1705	9.3539	6.5719	4.1302	2.7454	0.7339	0	0	0	0	0	0	0	0	0	0	0	0	0	0	0	0	0	0	0	0	0	0	0
402	97.7906	88.3442	80.0681	69.2921	62.343	53.999	49.5903	46.2234	44.6953	44.2442	45.3409	47.1311	48.4269	48.0777	46.7667	44.7055	41.3395	38.417	34.0644	30.7356	26.357	22.5848	19.3808	16.3482	13.3694	10.4622	7.6126	5.1514	3.1994	1.4271	0	0	0	0	0	0	0	0	0	0	0	0	0	0	0	0	0	0	0	0	0	0	0
404	100.7857	92.7739	83.2933	72.4606	66.2535	59.0702	51.8846	47.183	46.3112	45.9061	47.2086	48.3565	49.7628	50.7072	49.3476	46.3705	43.6033	40.0746	36.2704	32.4233	28.4359	23.9067	20.6429	17.6228	14.5558	11.5292	8.6701	5.9034	3.9055	2.3737	0.0915	0	0	0	0	0	0	0	0	0	0	0	0	0	0	0	0	0	0	0	0	0	0
406	107.9006	95.0848	87.0089	74.2614	67.4768	59.1265	53.4787	49.2393	47.9619	47.4404	47.5613	50.81	50.4714	51.6935	51.0353	48.5455	45.0381	42.0915	37.9748	34.1864	30.1672	25.2615	21.9626	18.8323	15.7162	12.6085	9.7599	6.8149	4.3436	2.8352	0.9288	0	0	0	0	0	0	0	0	0	0	0	0	0	0	0	0	0	0	0	0	0	0
408	116.9944	99.8742	90.5393	79.7374	70.7056	61.2584	55.8116	51.479	49.8119	49.795	50.7366	52.3702	52.3396	52.761	53.0584	50.3569	46.9345	44.2412	39.9	36.818	31.8462	27.4635	23.3173	20.0715	16.815	13.7063	10.6818	7.9577	5.3581	3.4356	1.9213	0	0	0	0	0	0	0	0	0	0	0	0	0	0	0	0	0	0	0	0	0	0
410	107.3222	102.0003	91.1692	82.298	71.1425	62.6789	57.0574	52.4647	51.7592	49.0513	50.6077	52.942	54.5749	55.5159	53.7723	52.6238	49.3735	45.9456	42.3948	38.2835	33.6715	29.3452	24.6685	21.2205	17.9108	14.9539	11.7952	8.8784	6.3882	3.9974	2.6039	0.6603	0	0	0	0	0	0	0	0	0	0	0	0	0	0	0	0	0	0	0	0	0
412	118.1201	105.1966	95.7762	84.4336	74.3838	64.943	59.9497	54.1239	51.4972	51.9635	53.2661	54.6678	56.9031	56.0615	56.8071	53.9751	50.5648	47.9062	44.3027	39.7923	35.8133	31.2733	26.0183	22.4804	19.3117	16.3521	12.9065	10.2617	7.3389	4.9898	3.2442	1.6631	0	0	0	0	0	0	0	0	0	0	0	0	0	0	0	0	0	0	0	0	0
414	111.9845	110.3602	95.9979	86.7055	78.0097	66.5699	60.5375	55.6335	52.7653	53.4969	53.6043	55.1519	57.3202	57.7817	57.5385	55.8632	52.9034	49.512	45.8283	41.902	37.7333	33.2223	28.085	23.8926	20.7094	17.4555	14.015	11.0292	7.9526	5.5597	3.8525	2.3129	0.3069	0	0	0	0	0	0	0	0	0	0	0	0	0	0	0	0	0	0	0	0
416	126.2495	112.2164	95.0424	87.5662	81.3958	69.6713	62.2254	57.6979	54.8048	54.6226	55.9158	57.0637	58.0493	58.9561	58.1569	58.4721	54.8326	50.8193	47.3983	43.6656	38.9599	34.7199	29.5712	25.3591	22.1541	18.5983	15.1552	11.7336	9.0927	6.8157	4.4169	2.8678	1.2132	0	0	0	0	0	0	0	0	0	0	0	0	0	0	0	0	0	0	0	0
418	125.8436	112.233	104.3336	91.2296	82.852	70.9366	63.961	59.3836	56.4455	55.6775	56.5319	57.865	59.0057	59.6111	61.3393	59.1317	55.8592	53.0395	49.2839	44.9878	41.6847	36.3773	31.7235	26.8899	23.3612	19.7883	16.3913	12.9326	9.8872	7.5389	5.0254	3.5735	1.9324	0	0	0	0	0	0	0	0	0	0	0	0	0	0	0	0	0	0	0	0
420	125.6818	119.073	105.9522	90.6519	82.799	73.622	66.9877	60.8488	57.5993	56.0879	56.9762	59.3484	60.7075	61.6371	61.5476	59.6566	57.19	54.8382	51.2732	47.8404	42.7961	37.9035	33.2618	28.4307	24.633	21.0995	17.6294	14.1394	11.331	8.45	5.9418	3.9516	2.6492	0.9133	0	0	0	0	0	0	0	0	0	0	0	0	0	0	0	0	0	0	0
422	128.7647	118.0049	108.1386	96.4695	86.7106	75.9773	67.0947	61.918	58.7614	57.1118	57.7358	59.8392	61.8764	62.7165	63.9729	61.2528	59.4349	56.62	53.2837	48.8496	44.9243	39.7818	34.3249	30.4346	25.9765	22.4246	18.7536	15.3575	12.0232	9.2455	6.8322	4.6475	3.2039	1.7299	0	0.035	0.0409	0	0	0	0	0	0	0	0	0	0	0	0	0	0	0	0
424	127.8905	119.5094	108.7898	99.6232	86.8216	77.2994	69.4865	63.5067	59.4668	58.1776	59.7972	60.5187	63.0468	64.348	63.9018	62.8271	60.765	57.5959	54.2001	50.6061	46.2874	42.023	36.4066	32.3116	27.3291	23.632	19.8855	16.584	13.0229	10.1386	7.3673	5.2833	3.7931	2.1764	0.458	0.1052	0.0822	0	0	0	0	0	0	0	0	0	0	0	0	0	0	0	0
426	127.948	120.3955	110.3371	101.4871	90.3582	80.7546	71.3836	64.4831	60.7494	59.2036	59.0271	60.4823	63.2849	64.3914	64.8055	64.159	61.9338	59.1505	56.0292	52.0316	47.7961	42.5733	37.9807	33.7769	28.7374	24.824	21.1625	17.7015	14.052	11.2185	8.2807	5.9612	4.3076	2.929	1.2734	0.1761	0.1238	0	0	0	0	0	0	0	0	0	0	0	0	0	0	0	0
428	136.1947	125.5009	108.1942	105.6715	92.635	79.7416	72.401	64.7912	62.6268	59.8412	59.8175	62.0429	64.6618	65.4408	65.9358	64.9267	63.3354	60.6018	57.8826	53.5879	49.4111	44.5382	39.7012	34.86	30.2207	26.0689	22.4879	18.5654	15.1152	11.9482	9.2984	7.0048	4.9562	3.5754	2.0017	0.2482	0.0831	0	0	0	0	0	0	0	0	0	0	0	0	0	0	0	0
430	138.5674	123.6691	115.3186	102.5988	94.6333	82.2265	74.1778	66.0865	63.2288	60.675	62.1947	62.4726	64.9176	66.7128	66.6605	65.545	64.7644	62.9131	59.0648	55.3216	50.8325	45.5132	40.9683	36.7019	31.8085	27.3285	23.5333	19.4392	16.1914	12.9057	10.1713	7.7025	5.6761	4.088	2.563	0.8596	0.0418	0	0	0	0	0	0	0	0	0	0	0	0	0	0	0	0
432	132.8878	130.4478	117.6315	104.225	95.1194	85.2187	75.0626	67.8498	64.7293	60.9868	61.6442	63.1967	65.1735	67.689	67.3976	66.424	65.6115	63.6549	60.1995	56.5276	52.9953	47.7073	42.396	37.3351	33.2704	28.5713	24.415	20.5259	17.2267	13.8596	11.038	8.3507	6.4594	4.5999	3.3512	1.6113	0	0.0467	0.0546	0	0	0	0	0	0	0	0	0	0	0	0	0	0
434	134.3554	128.1252	113.6878	104.3039	95.4447	84.2433	75.7315	68.5094	64.9712	62.5056	62.1245	63.0698	65.0931	67.011	67.4947	68.3521	65.7877	64.7157	61.1311	57.8208	53.2428	48.8055	43.4241	38.605	34.5069	29.6796	25.305	21.6235	18.2021	14.8232	12.0216	9.0441	7.1842	5.1432	3.815	2.4749	0.4105	0.1409	0.1097	0	0	0	0	0	0	0	0	0	0	0	0	0	0
436	140.7629	128.824	115.798	106.2211	97.015	85.1591	78.445	69.2416	65.3146	63.8038	63.5708	64.1634	66.6066	67.5726	68.5826	69.1155	67.7752	65.9233	62.7621	59.0166	55.0193	49.5781	45.0698	40.4582	35.7858	31.6974	26.237	22.6904	19.2119	15.8167	12.3555	9.9339	7.9811	5.6812	4.198	2.9947	1.4191	0.2363	0.1657	0	0	0	0	0	0	0	0	0	0	0	0	0	0
438	140.8512	134.9329	120.2742	107.7272	97.997	88.1888	78.7709	71.086	67.2793	63.5002	64.0308	64.693	66.8825	68.3652	68.4682	69.0648	68.9594	66.5297	63.7273	59.692	55.9331	51.3664	46.1144	41.3508	37.207	32.2825	27.2141	23.7212	20.1728	16.713	13.2038	10.709	8.6789	6.5454	4.6982	3.5397	1.8361	0.3334	0.1113	0	0	0	0	0	0	0	0	0	0	0	0	0	0
440	145.5687	131.2776	120.0753	110.8388	102.7879	89.6833	80.506	72.7158	66.4721	64.221	62.6204	64.9455	67.9047	68.2337	69.7631	70.2585	68.6104	67.4026	64.8961	60.915	57.0649	52.6312	46.6456	41.824	37.8848	34.2952	28.611	24.6347	21.0593	17.4817	14.064	11.4303	9.3671	7.2092	5.0933	3.8767	2.5963	0.9958	0.0561	0	0	0	0	0	0	0	0	0	0	0	0	0	0
442	149.2403	129.6772	119.4341	110.3866	102.7432	90.9542	80.1271	72.1387	68.1166	65.5137	64.0937	65.2409	66.358	68.0053	69.9731	70.2328	69.5514	67.0652	65.8679	62.2514	57.931	53.3283	48.2704	43.6988	39.0169	35.3905	30.1329	25.5401	21.9405	18.0532	14.9246	11.9825	9.8737	7.8749	5.9109	4.3576	3.2006	1.659	0	0.0306	0.0354	0	0	0	0	0	0	0	0	0	0	0	0
444	147.0623	132.4311	120.6262	113.7525	104.5812	93.0556	80.8055	73.685	68.661	66.3396	64.2129	65.3771	67.7692	68.5486	69.4097	69.9838	70.4074	67.7368	66.3513	63.3865	59.0153	53.5396	49.405	44.3974	39.5328	36.0168	31.0942	26.4559	22.6386	18.6309	15.7959	12.7386	10.5911	8.4237	6.7391	4.735	3.5795	2.2116	0.5961	0.0924	0.0713	0	0	0	0	0	0	0	0	0	0	0	0
446	148.441	130.2464	125.1712	111.3772	102.0222	94.3918	83.4029	74.5273	68.7523	64.4729	63.3711	64.7784	67.9552	68.4619	70.1716	70.0958	70.3461	68.9639	66.8525	63.1862	60.2847	55.1911	49.6238	45.1907	40.5768	36.7953	32.5732	27.3998	23.262	19.5404	16.5281	13.5128	11.5185	9.3266	7.3174	5.4566	4.1391	2.8189	1.3818	0.1552	0.1078	0.0031	0	0	0	0	0	0	0	0	0	0	0
448	140.5465	131.5536	120.9926	113.2832	101.0366	92.1791	84.4446	74.3053	69.9001	65.8283	64.5832	63.861	66.541	68.1011	69.4968	70.6432	69.9792	68.7765	67.5877	64.8597	60.6353	56.0723	50.752	46.1511	41.7695	37.2419	33.3597	28.2154	23.9076	20.4748	16.9568	14.3063	12.2102	10.0587	8.0559	6.0691	4.3242	3.3791	1.9079	0.219	0.0796	0.0062	0	0	0	0	0	0	0	0	0	0	0
450	147.1073	135.0209	119.7432	114.0731	102.3888	91.7057	84.2179	73.9697	71.339	65.6401	65.2641	64.672	65.9605	67.4174	69.4285	70.6569	70.0731	68.8718	67.842	64.5726	60.9976	55.9933	51.4006	47.0627	42.7148	38.8105	34.3627	29.3202	24.5608	21.0972	17.3903	15.1111	12.8262	10.8534	8.4854	6.5206	5.0543	3.9581	2.6138	1.0305	0.051	0.0093	0	0	0	0	0	0	0	0	0	0	0
452	139.4484	133.2022	123.4276	114.0247	105.2548	93.8397	84.0866	76.7854	69.7474	65.7981	64.5991	65.5688	65.4354	67.4199	68.0958	69.0968	70.897	69.9001	67.9419	64.9028	61.3353	57.0455	51.6391	47.4596	43.5174	39.2044	34.9095	30.0435	25.233	21.5731	18.2334	15.8743	13.4567	11.5577	9.2031	7.2958	5.4769	4.2314	3.0181	1.5616	0.022	0.0723	0.0738	0	0	0	0	0	0	0	0	0	0
454	143.9136	133.3793	122.5931	114.7189	105.6569	95.8433	83.3467	76.1605	70.2898	66.407	64.4958	65.735	66.0786	66.0021	68.2195	69.7045	69.1527	69.6672	67.8031	65.1486	61.3388	57.309	52.618	47.7165	43.9676	39.7388	35.6507	31.0015	26.4418	22.0541	19.0883	16.5273	14.096	11.7392	9.7508	7.9052	6.1315	4.7169	3.5839	2.2839	1.0173	0.1966	0.1489	0	0	0	0	0	0	0	0	0	0
456	139.7305	132.4246	123.4301	114.2228	103.7477	93.6754	84.1536	76.7133	70.9314	66.1402	64.5059	64.0289	65.2898	66.6533	67.6398	69.372	69.5597	69.2223	67.8198	64.8977	62.3057	57.8048	53.1472	48.0421	44.6816	40.5743	36.0065	31.6576	26.9011	22.5749	19.8634	17.2155	14.7669	12.1433	10.5591	8.4906	6.7136	5.2362	3.9022	2.7336	1.254	0.3235	0.2255	0	0	0	0	0	0	0	0	0	0
458	143.2419	131.8014	118.593	115.5712	104.1636	92.603	84.6272	78.3521	70.6911	65.9793	64.4186	64.9397	65.3954	65.8396	67.1628	68.814	69.6158	68.5527	67.666	65.6971	62.4616	59.1894	53.572	48.801	44.3907	40.6749	36.5834	32.2961	27.5795	23.1371	20.5421	17.7863	15.2364	12.6578	10.9295	9	7.2713	5.4668	4.242	3.2364	1.8556	0.4534	0.152	0	0	0	0	0	0	0	0	0	0
460	141.1544	129.3835	117.829	113.1199	105.481	92.9843	85.3926	77.6581	70.6207	66.7968	64.6619	63.6542	64.6429	65.57	66.7451	69.036	69.1979	68.7253	67.4572	65.3446	61.9488	57.8169	52.9832	48.6079	45.3446	41.7038	38.2378	32.9535	28.0111	24.2012	20.9956	18.2088	15.5792	13.1807	11.8126	9.5849	7.6339	6.2007	4.6388	3.4978	2.3792	1.1266	0.0768	0	0	0	0	0	0	0	0	0	0
462	144.0768	133.4535	119.0038	113.0376	103.746	95.4815	85.1908	77.2853	70.2483	66.0886	64.3312	63.5932	64.5793	65.688	66.4172	67.572	68.3318	68.1806	66.6176	65.191	61.9987	58.3268	53.8428	48.6994	45.8242	41.6747	38.0913	33.1643	29.1103	24.7733	21.4777	18.6568	15.8335	13.7271	11.9668	10.0793	8.3271	6.4892	4.8748	3.946	2.746	1.5119	0	0.0072	0.0085	0	0	0	0	0	0	0	0
464	134.8456	123.0714	122.5183	112.6906	105.554	94.1477	86.0554	76.3963	72.0662	66.5454	64.2685	64.004	64.9437	64.2318	66.9278	68.1869	67.9563	67.698	67.0094	64.9039	62.2607	57.9979	53.416	49.0798	45.4868	41.6825	38.5239	34.1672	29.7539	25.838	21.9653	19.0007	16.0895	14.2829	12.2859	10.594	8.5833	7.0621	5.4585	4.1249	3.2443	1.8	0.664	0.0219	0.0172	0	0	0	0	0	0	0	0
466	131.9795	125.7343	120.9694	110.2286	103.2356	93.4922	84.602	76.181	70.7089	65.8349	63.4989	63.3652	62.7624	63.8416	65.2145	66.017	67.9889	67.6443	66.413	64.5842	61.9687	58.4107	53.5881	49.8065	46.2101	42.8207	38.6891	34.0807	30.1148	25.8333	22.4654	19.2978	16.6797	14.7179	12.6129	11.0555	9.0628	7.5237	5.8309	4.5212	3.303	2.343	1.1037	0.037	0.0261	0	0	0	0	0	0	0	0
468	129.0507	125.768	121.2879	109.6223	104.2225	94.6506	86.9965	77.5031	70.3978	65.6264	62.8941	62.892	63.3448	63.6736	64.8361	65.8574	65.8578	67.0525	65.3735	64.5273	61.7087	57.8331	53.697	49.2876	46.0484	43.0047	38.8784	34.5631	30.779	26.6929	23.2563	19.6026	17.2847	14.891	12.9483	11.1538	9.3696	7.7527	6.2541	4.69	3.7987	2.7584	1.6383	0.0524	0.0176	0	0	0	0	0	0	0	0
470	126.0164	127.9361	119.8894	106.3601	103.4624	95.1982	85.1307	77.8666	71.9001	65.5286	62.8573	61.8257	62.3908	63.1389	64.366	64.1757	65.2333	66.0972	65.6167	64.4372	61.2986	57.3744	53.2066	49.4956	46.0716	42.8944	39.1502	34.8546	30.3014	27.2519	23.5017	19.9091	17.6244	15.064	13.288	11.5007	9.8179	8.2862	6.6394	5.0193	4.0466	2.8254	2.0387	0.7495	0.0089	0	0	0	0	0	0	0	0
472	123.1782	124.1963	118.0125	107.6169	103.4909	94.9973	85.6118	77.0778	70.8053	65.116	62.7477	61.9422	61.2909	61.9913	63.5157	64.1177	64.8627	65.3606	64.2676	63.7141	61.1594	57.2054	53.3156	48.868	46.0631	43.1357	38.8459	34.7047	30.8111	27.7912	24.0187	20.2653	17.8704	15.4648	13.6739	11.8809	10.4268	8.7548	6.937	5.4255	4.1863	3.383	2.3694	1.1553	0	0.0494	0.0585	0	0	0	0	0	0
474	120.2125	121.9261	116.3576	104.7832	101.4453	90.6696	83.2394	75.5358	69.4147	65.551	62.5059	60.4501	60.5288	61.7639	62.304	62.7107	63.1744	64.42	62.7022	62.9242	59.8325	57.6264	52.7218	48.9815	45.7773	42.3329	39.0952	34.6309	31.387	27.8932	24.4629	20.9221	18.1162	15.8708	14.0843	12.2672	10.8737	9.0816	7.3141	6.093	4.3574	3.5396	2.5691	1.6112	0.5015	0.1503	0.1187	0	0	0	0	0	0
476	117.0097	118.847	114.5217	105.1722	101.7642	92.0118	81.9569	74.6926	68.8069	64.8665	62.1253	61.0507	59.3563	59.9214	61.1846	62.0359	62.5258	62.8781	62.7921	61.149	59.3294	55.7383	53.0145	48.5404	45.4639	42.4314	39.3572	34.8492	30.9694	27.4442	24.6608	21.1116	18.345	16.2864	14.4876	12.6481	10.7532	9.123	7.7849	6.2452	4.8521	3.7726	2.8548	1.8635	1.0993	0.2537	0.1804	0.0014	0	0	0	0	0
478	113.5841	115.5456	110.5857	104.3992	100.4621	92.929	83.1341	74.905	67.8576	64.2203	59.729	59.8881	60.056	59.0131	59.9805	61.0489	61.2066	61.4888	61.8098	60.264	58.3007	55.7176	51.6055	48.3926	45.4622	42.1096	38.7865	35.343	31.378	27.8917	24.8372	21.5527	18.557	16.649	14.7764	12.8619	10.987	9.7889	8.2035	6.6845	5.2616	4.1412	3.0471	2.3944	1.2456	0.3594	0.125	0.0029	0	0	0	0	0
480	110.0512	112.1387	108.5227	103.7818	97.5315	89.7056	83.3388	75.4791	69.9035	62.2279	60.095	58.6189	58.682	58.556	58.6974	60.1723	60.4509	61.5689	61.1945	59.3452	57.8775	54.4081	50.7484	47.8952	45.0693	42.1481	38.6472	35.2296	31.1106	27.8737	24.9912	22.2906	18.9393	16.8547	14.9599	13.0263	11.2233	10.0116	8.5603	6.8103	5.6426	4.2971	3.373	2.816	1.9037	0.6788	0.0683	0.0044	0	0	0	0	0
482	106.1858	108.3962	106.8733	105.2753	96.8923	90.178	83.1417	74.4445	68.7348	62.8122	58.7441	58.6423	57.3273	56.0932	57.3793	59.0947	60.0096	60.4612	59.5331	57.7468	57.1975	53.8135	50.6662	47.384	44.8834	42.1399	38.8329	34.7213	31.2769	28.1878	24.9513	21.7518	19.7959	17.0253	15.1124	13.1709	11.4384	9.7854	8.8207	7.0417	5.773	4.4513	3.6389	2.7937	1.9836	1.13	0.0103	0.0278	0.0272	0	0	0	0
484	102.2357	104.5704	102.6947	102.691	94.6053	90.19	81.5734	73.3276	68.1958	62.741	58.5767	57.2891	57.1507	57.4914	56.874	58.7419	58.3676	59.3211	58.5855	57.5322	55.6921	53.3373	49.8587	46.5092	44.3481	42.0364	38.62	35.3086	31.7835	28.3473	25.4451	22.3238	19.8963	17.1961	15.2722	13.3159	11.6555	9.991	9.1157	7.6566	6.0661	4.775	3.7479	3.1916	2.3858	1.5161	0.671	0.0738	0.0549	0	0	0	0
486	98.1817	100.6417	100.3069	100.9034	92.3364	86.5804	80.5925	72.3899	67.6544	61.0085	58.3358	56.094	55.9816	55.4278	55.2923	57.1774	57.3367	57.357	57.9291	56.6124	54.9774	53.0733	49.6575	46.8198	43.6744	41.0882	39.138	35.1835	31.5006	28.4018	25.3498	22.6572	20.0055	17.3637	15.4328	13.5477	11.8241	10.1968	9.1998	7.9939	6.3879	4.9955	3.9175	3.3102	2.825	1.8921	0.8242	0.1207	0.0831	0	0	0	0
488	94.0275	96.6136	97.8421	101.3985	93.0721	89.2832	78.8242	73.1673	66.6347	62.2211	58.9565	57.1364	55.4455	54.3272	54.9652	56.8686	55.7941	56.7223	55.8628	56.3779	54.726	52.3459	48.9176	45.7085	43.2877	41.4707	38.0535	34.5213	31.355	28.2819	25.4881	22.5396	20.0451	17.9818	15.5908	13.7789	11.8942	10.4026	9.4966	8.1108	6.6065	5.542	4.1539	3.7143	2.886	2.184	1.3918	0.1683	0.0559	0	0	0	0
490	89.7944	92.5078	95.3213	98.1535	93.2114	85.4308	79.3188	72.7984	66.4921	59.7502	57.3894	55.177	53.0069	53.9681	53.3806	54.7754	55.5573	55.5393	55.7196	54.3247	52.9921	51.2261	48.4924	45.966	43.8319	40.597	37.7782	34.7257	31.6012	28.0501	25.4326	22.6335	20.2451	17.9038	15.7492	13.9141	11.9636	10.6105	9.214	8.216	6.7545	5.6946	4.4872	3.7782	3.0958	2.3777	1.5478	0.8175	0.0282	0	0	0	0
492	85.5658	89.0506	92.8349	95.7732	93.4289	83.9022	79.5238	70.3682	66.418	61.0279	58.0456	55.0038	53.6247	52.8336	54.0459	54.2589	53.8331	55.2502	54.6613	53.8547	52.2097	50.178	47.56	45.0722	42.4888	41.3559	37.7481	34.205	31.3347	28.0058	25.1386	22.5549	20.4975	18.3574	15.9231	14.0135	12.1965	10.8307	9.3903	8.5264	7.244	6.053	4.7987	3.8689	3.2102	2.5582	1.8862	1.0384	0	0.0422	0.0493	0	0
494	81.2494	86.1618	90.2862	92.3743	90.575	86.4869	76.516	70.8666	64.4711	59.886	56.1435	54.6092	53.4731	52.5614	52.4928	52.2764	52.785	54.038	53.1797	53.0721	51.286	49.6431	46.4542	44.0032	42.0113	40.639	36.8706	34.6169	31.1364	28.0866	25.0552	22.8275	20.3881	18.6458	16.2312	14.1121	12.4316	10.9472	9.5682	8.7277	7.4236	6.2403	4.9506	3.9006	3.2866	2.7344	2.2032	1.4634	0.5938	0.1279	0.0995	0	0
496	76.822	83.1808	90.4013	89.9998	89.7256	81.7552	76.3429	68.2779	64.7826	58.6479	55.1061	54.0713	52.4098	50.6588	50.8108	50.8959	52.5765	52.0361	52.5112	51.663	50.2464	48.3474	45.9084	44.0263	41.5388	40.2222	37.1178	34.0749	30.6233	28.0858	24.9563	22.8423	20.6063	18.3085	16.3951	14.2058	12.6119	11.0073	9.7449	8.5422	7.5331	6.4921	5.5867	4.2075	3.5813	3.1472	2.3757	1.6575	0.8253	0.2152	0.1506	0.0049	0
498	72.2892	87.5182	86.6089	87.5427	84.9332	81.5517	75.3986	70.0416	63.4241	57.1598	54.1199	52.5018	51.2065	50.2961	50.4176	50.658	50.9391	51.029	51.1189	50.7946	50.0583	48.1611	44.9471	43.3162	41.3091	38.5103	37.27	33.4235	30.416	27.6976	25.1756	22.9181	20.774	18.4546	16.6765	14.2945	12.6823	11.0633	9.9203	8.6152	7.9724	6.5503	5.6659	4.562	3.5401	3.2776	2.7083	1.9921	1.1541	0.3039	0.1128	0.0099	0
500	81.4945	83.2445	82.7443	85.032	85.7816	77.3556	72.8904	69.5536	62.3669	56.6428	53.8502	51.3095	50.8365	48.756	48.7646	49.1887	50.0538	50.0083	49.643	49.0279	47.9567	46.4601	44.2689	41.3767	40.1746	38.7006	36.1482	33.2628	30.0247	27.4989	24.996	22.8019	20.8443	18.4954	16.7705	14.6093	12.752	11.2502	10.0269	8.6881	8.055	6.7472	5.8688	4.8138	3.7197	3.2218	2.876	2.2254	1.4052	0.8917	0.0744	0.015	0
502	74.0483	78.8698	79.3206	82.4428	84.9104	79.3823	74.0485	67.9452	62.6219	55.2021	52.5838	51.0826	48.7343	47.3551	47.9524	48.6437	48.2834	48.662	48.606	48.088	47.662	45.9092	43.358	41.4807	39.8798	37.9706	35.4479	32.4834	29.6108	27.4659	24.9572	22.3986	20.3454	18.6703	16.7928	14.9005	12.8172	11.4352	9.9889	8.7584	7.8378	7.2091	5.871	5.0028	3.7301	3.3482	3.0295	2.4228	1.7491	1.0651	0.0353	0.0842	0.187
504	71.8522	74.4217	76.3752	79.8025	79.0869	75.9976	70.0858	65.8897	60.1499	54.2851	52.389	49.5082	48.0778	47.3203	46.629	47.6008	47.6142	47.6905	47.3087	46.7081	45.5146	44.2896	42.5519	40.5076	38.3808	37.5009	35.3019	32.1739	29.7426	26.9031	24.33	21.9056	20.2186	18.3422	16.3643	15.1845	12.8817	11.4788	9.9489	8.8287	7.7083	7.1015	6.0605	5.4214	4.2742	3.2309	2.9924	2.4533	2.0434	1.4382	0.5424	0.2189	0.3771
506	71.0771	69.9843	73.4629	75.6686	76.0951	74.0513	70.8096	64.6268	58.6444	54.9859	50.6336	48.2832	47.411	44.5468	46.2416	46.5998	46.2203	45.6298	46.1544	45.2393	44.4132	43.8105	41.3167	39.1112	38.2091	36.3492	34.3208	32.1087	28.8978	26.5009	24.2491	21.6557	20.3558	18.1146	16.9258	15.0828	12.9607	11.463	10.0401	8.9093	7.8308	7.3797	6.2803	5.5431	4.526	3.5659	3.2821	2.7428	2.2365	1.5421	0.8485	0.3563	0.571
508	61.6489	65.5395	71.3212	72.2724	73.1249	72.0013	69.0108	63.0165	58.0519	52.7168	50.3141	47.2238	46.6274	44.7253	44.4385	44.4546	45.0803	45.0115	45.4672	44.5217	43.1267	41.9798	40.7049	38.8093	37.1656	35.6618	33.7855	30.9271	28.3665	26.3576	24.1091	21.7095	20.3342	18.5182	16.8298	14.9547	13.1555	11.4582	10.1431	8.982	7.9635	7.3666	6.4214	5.6957	4.8836	3.8711	2.9876	2.9289	2.4399	1.845	1.2455	0.4968	0.7694
510	60.4287	65.6875	67.4752	68.7955	70.0813	70.9153	67.6039	61.75	57.7392	52.2499	49.4891	46.7165	43.7909	43.3345	43.3696	43.5265	43.146	43.1119	42.9666	43.2729	42.9963	41.2751	39.0915	37.6874	36.6344	35.4745	33.2404	30.8887	28.1167	25.746	23.6652	21.6162	19.807	18.2801	16.5751	15.1267	13.4899	11.4508	10.2366	9.0449	8.0972	7.2893	6.654	5.8563	5.006	3.9879	3.0713	2.9214	2.5712	2.1681	1.4619	0.7752	0.9718
512	59.1632	61.1072	63.5353	65.289	66.956	67.8983	64.8403	59.7351	56.0342	49.7397	47.1824	46.7857	44.4009	42.8157	42.1425	42.8575	41.4366	42.043	41.8681	41.8703	41.3121	40.1327	38.5294	36.6283	35.5155	34.4259	32.2928	30.2287	27.2554	25.224	23.1848	20.7583	19.6153	17.7524	16.496	14.6634	13.2636	11.4393	10.3097	9.1061	8.231	7.3336	6.8071	5.9247	5.3307	4.3838	3.1662	2.7442	2.6791	2.328	1.4906	1.1807	1.178
514	57.8608	59.9069	59.5111	61.7642	63.7591	67.9482	62.8231	59.9589	54.3193	49.8696	46.6893	45.3712	43.2845	41.8471	41.1145	40.2757	40.4703	41.0788	40.7371	40.1489	39.9001	38.6308	37.0806	35.7508	34.6748	33.9677	31.7851	29.7268	27.0177	24.8393	22.9049	20.9282	19.7983	17.6131	16.4972	14.595	13.3369	11.9238	10.3822	9.2502	8.2962	7.3773	6.7838	6.1148	5.3702	4.5176	3.3167	2.5341	2.5714	2.3102	1.8526	1.2749	1.272
516	56.5653	58.1043	55.4463	58.2084	64.212	65.1917	62.3159	57.896	52.768	47.9575	46.2253	45.0142	42.1643	40.4278	39.2716	39.7701	40.1108	40.5374	40.2039	39.4467	39.1466	38.4323	35.9312	35.0238	34.0989	32.8191	31.3783	29.3257	26.5263	24.3634	22.3194	20.4884	19.0461	17.6954	16.1301	15.0049	13.5449	11.9521	10.4621	9.4025	8.2268	7.4262	6.6881	6.4119	5.5078	4.6296	3.7278	2.6072	2.6704	2.6126	2.064	1.5348	1.5313
518	55.2724	54.2207	51.3302	59.1198	61.4714	62.4134	63.8464	55.3785	51.2894	47.332	44.9498	42.4862	40.6086	39.8977	39.3369	39.1317	39.3493	39.4703	38.6911	37.9123	36.9982	36.7773	35.3222	34.5356	33.3046	32.3975	30.6075	28.3941	26.0318	24.1338	22.0186	19.9561	18.8052	17.7336	16.0901	14.6217	13.2331	11.8379	10.5493	9.4197	8.1602	7.48	6.8554	6.2904	5.5657	4.7671	4.0401	2.6951	2.3402	2.5816	2.295	1.6098	1.6061
520	53.9368	37.9372	52.7272	55.998	58.6568	59.5602	59.0041	54.9241	50.0451	46.194	43.3982	42.1225	39.8326	38.7971	38.1302	37.2287	37.8582	37.6331	37.8681	37.3259	36.6008	35.4459	34.0374	33.3761	32.3488	31.4555	29.4781	27.7035	25.8302	23.6024	21.547	19.7144	18.315	16.7409	15.8074	14.3601	13.3354	11.8242	10.6358	9.3623	8.221	7.5332	6.8082	6.1377	5.6131	4.7865	4.2754	2.6987	2.0692	2.5765	2.3134	1.8026	1.7985
522	52.5552	38.2145	51.8928	52.7938	55.5922	56.6287	58.4847	53.7588	48.8827	46.6441	42.6567	40.9279	38.9816	36.9776	37.3814	36.381	36.5111	36.7887	36.3264	36.1048	35.8039	34.6055	32.9117	32.7712	31.4609	30.7188	29.1475	27.3276	24.7911	23.0347	21.2232	19.4623	17.8526	16.8463	15.473	13.9895	12.8726	11.9237	10.5165	9.3007	8.2805	7.5155	6.7579	6.1976	5.7808	4.9034	4.3502	3.3353	1.924	2.4013	2.3946	1.9699	1.9654
524	51.1312	38.4887	49.3215	49.5119	52.2775	53.6234	54.8183	52.8191	47.9097	44.4875	42.0523	39.7128	37.9134	36.3536	35.5814	35.2255	35.6511	35.1288	35.3787	34.6584	34.9951	33.4808	32.7394	31.6994	30.9164	30.0655	28.3804	26.533	23.9672	22.6429	20.5658	19.2407	17.4607	16.8438	15.2638	14.0452	12.8044	11.5764	10.4665	9.2356	8.3041	7.4605	6.7049	5.9811	5.9013	5.0423	4.6647	3.7006	1.8966	2.0303	2.4185	2.0127	2.0081
526	49.699	38.7861	50.7083	46.1839	48.9174	51.78	52.3669	52.1312	48.5888	44.3654	40.7063	38.7681	37.5733	36.4219	35.1886	34.8832	34.3284	33.9626	34.9357	34.1522	33.9234	32.9488	31.7644	30.7678	29.7186	29.3215	27.5676	26.1961	23.679	21.8536	20.6681	18.7059	17.7265	16.4129	15.1466	13.9872	12.5441	11.7014	10.2165	9.1729	8.2605	7.4075	6.6536	5.9627	5.6799	5.1769	4.6705	3.8298	2.1607	1.6656	2.4647	2.2009	2.1959
528	48.2544	39.1064	48.3615	42.8023	49.1584	48.9111	49.8822	49.8625	46.6669	42.6235	39.6953	38.5286	36.843	34.4966	33.9324	33.7292	33.6165	33.5431	33.7212	32.8939	32.4483	32.2445	30.4407	29.8019	28.8152	28.949	27.3071	25.7796	23.4325	21.7275	20.1015	18.4425	17.5885	16.7167	14.6266	14.0025	12.3443	11.4824	10.5288	9.2227	8.2193	7.3675	6.5782	5.9463	5.751	5.0902	4.5799	4.1321	2.5963	1.3343	2.3263	2.2895	2.2843
530	46.7622	39.4232	41.9908	45.4866	45.9214	45.9637	47.3269	47.4115	44.8087	41.7567	39.2209	37.0729	34.9786	33.1875	33.6485	32.4677	32.9458	33.0169	32.4583	32.3853	31.9256	31.4735	30.1502	29.4047	28.4614	27.8998	26.5494	24.7154	23.0767	21.4356	19.7633	18.0211	16.9778	15.4394	14.5641	13.6239	12.637	11.0351	10.5941	9.0349	8.1746	7.3244	6.4475	5.9278	5.8281	5.2179	4.8098	4.1211	2.9686	1.0928	1.7021	2.3162	2.311
532	45.2294	39.7424	29.9586	46.4095	42.6068	43.0438	44.708	47.5453	43.3731	40.9688	38.4738	35.5426	34.5704	33.5412	33.0608	31.4928	31.187	31.6613	31.2408	31.1985	31.5992	30.2878	29.376	27.8806	27.8087	27.5427	26.3342	24.2438	22.1472	20.5896	19.3535	17.6965	16.6851	15.4969	14.2343	13.1743	12.2996	11.2426	10.2583	9.2193	8.1279	7.2273	6.3128	5.9081	5.4879	4.9972	4.6671	4.0893	3.2986	1.3931	1.141	2.0158	2.0112
534	43.6487	40.058	32.4463	42.7532	39.2075	40.1473	42.0179	44.9143	43.348	39.6035	37.255	35.176	33.8293	31.6022	31.758	31.1342	30.6281	30.8479	30.2569	30.2391	30.0092	28.6335	28.6797	27.4125	26.843	26.4793	25.3228	23.9459	21.6167	20.2739	18.9523	17.0143	16.1072	14.8882	13.9244	13.0933	12.0786	11.1987	10.3279	9.1472	8.0777	7.0995	6.2967	5.8862	5.4255	5.2466	4.6753	4.4001	3.8016	2.2561	0.7465	2.0524	2.0478
536	42.0419	40.3909	35.0051	43.0056	35.7423	37.1956	41.3549	42.7637	41.3418	38.5556	36.9549	34.5273	31.3188	31.6742	30.7777	30.2821	29.9297	29.5432	29.7123	29.3511	29.1934	28.5211	27.7481	26.4871	25.9101	25.8919	24.7743	22.8403	21.5772	19.8781	18.2686	16.6297	15.7864	15.0532	13.6393	12.5635	11.6745	10.9539	9.9698	9.0695	7.9696	6.9704	6.2817	5.8139	5.3629	5.2067	4.7861	4.3335	3.3883	2.6434	0.683	1.4299	1.4266
538	40.4059	35.008	37.6385	43.3806	32.2058	38.6864	39.374	40.5716	40.6227	36.9655	34.9119	34.0013	32.0489	30.3696	29.8631	29.2054	28.773	28.8918	29.328	28.5291	28.4566	28.1737	27.2368	26.1478	25.2506	25.3434	24.1168	22.7585	20.754	19.3094	17.7204	16.6972	15.5885	14.6557	13.8272	12.5351	11.5478	10.8353	10.1468	8.9763	7.8234	6.8396	6.2419	5.715	5.2998	4.9087	4.9996	4.2253	3.7498	2.9963	1.0727	0.7895	0.7877
540	38.7178	37.8619	40.3299	42.305	36.2201	36.4894	37.3336	38.3147	39.6911	36.6758	35.0345	32.356	30.5278	31.1419	29.1483	27.901	28.0438	28.4707	28.169	27.676	27.3302	27.3797	26.0731	25.7715	24.9538	23.9385	23.7105	22.0741	20.5405	18.8142	17.7089	16.1828	15.4902	14.2028	13.4278	12.4682	11.4842	10.5329	9.4972	8.945	7.9261	6.7034	6.1472	5.6119	5.2336	4.7979	4.6181	4.3628	3.7752	3.1981	1.3815	0.2246	0.224
542	37.0649	35.3882	33.1089	31.0896	37.7572	34.3103	35.1638	36.078	38.3837	35.9886	34.5045	31.35	30.2052	29.8176	27.9663	27.4875	27.2267	27.2277	26.8128	27.6974	26.6494	26.3548	25.0445	24.6076	23.7825	23.7818	23.2041	21.4609	19.8641	18.7396	17.4121	15.9705	14.8397	14.1892	13.1789	12.3035	11.2844	10.3622	9.6269	8.5725	7.8625	6.7463	6.0623	5.5613	5.1705	4.6937	4.5668	4.4	3.8184	3.1984	2.3192	0.0063	0.0063
544	50.8796	36.2115	22.8473	11.5555	37.123	32.0559	32.7639	33.7638	35.5381	34.5004	33.3801	30.6515	30.9372	28.2683	27.4963	26.8834	27.6725	26.7742	26.5278	26.4012	25.5899	25.6409	25.0414	24.1597	24.2265	23.6907	22.1902	21.0914	19.2657	18.256	17.1339	15.6784	14.6012	13.301	12.5872	11.8611	10.901	10.3039	9.2111	8.7449	7.8898	6.6846	5.9724	5.5068	5.0919	4.5846	4.5017	4.1986	3.7519	3.3918	2.7079	0.5136	0.5124
546	50.8314	36.4959	23.4066	16.9009	37.9332	29.7102	30.2682	32.4938	33.9069	33.63	31.2707	30.3155	28.999	27.4525	26.5105	26.1547	26.4044	25.5827	25.7481	25.0644	25.7371	24.5221	23.9454	23.3168	23.2232	22.6982	21.7591	20.2569	18.5238	17.7271	16.8538	15.279	14.2079	13.4001	12.5839	11.5218	11.1034	10.1284	9.0993	8.3854	7.7285	6.7964	5.8743	5.434	5.0063	4.4681	3.9545	4.3606	3.9563	3.2866	2.9473	0.9775	0.9752
548	53.1978	37.7341	24.4058	22.3892	35.2531	27.2782	30.5895	30.4203	32.2028	32.6162	30.824	30.1233	27.2226	26.4492	25.8622	25.3698	24.6328	25.1804	24.9163	24.5864	23.9388	23.5918	22.921	22.8522	22.8428	21.747	20.9206	19.8324	18.1644	17.2554	16.3747	14.8044	13.7488	13.0581	12.0442	11.4838	10.5487	9.6314	9.3816	8.4086	7.7574	6.9965	5.7683	5.3485	4.8908	4.3444	3.9253	4.2383	3.8068	3.2598	2.9641	1.8108	1.8066
550	53.5293	38.9926	27.9769	28.0281	36.0203	29.4011	28.3914	28.286	30.446	33.0358	30.6286	28.7145	27.293	26.344	25.1698	24.7399	23.8275	24.3067	24.0735	23.7642	23.6137	23.0454	22.0227	21.7945	21.6336	21.4075	20.3835	19.3275	18.0921	16.9457	15.5911	14.2941	13.7749	12.6005	11.9108	10.941	10.2964	9.6842	9.1598	8.2672	7.6279	6.9588	5.8532	5.2591	4.7707	4.2431	3.8942	3.9699	3.9123	3.586	2.9672	2.3023	2.2971
552	48.756	40.3856	34.3283	33.9148	33.4822	28.0802	26.2049	26.3593	28.7176	31.4953	29.1707	27.8934	26.0446	24.8544	24.4904	24.2801	23.5087	23.9002	23.4431	23.1952	22.8926	22.9142	21.9224	21.1026	21.2564	20.4976	19.8268	18.6198	17.4366	16.3815	15.1709	13.75	13.2186	12.6208	11.5902	11.0089	10.1801	9.3793	8.9234	7.977	7.2893	6.6463	6.2668	5.1803	4.6728	4.1631	3.8718	3.5993	3.7422	3.4389	3.0626	2.4377	2.4321
554	51.6591	41.8035	34.7306	28.6719	23.4558	28.5552	23.9416	24.5607	26.9243	29.0069	26.9686	26.3141	25.793	24.0506	23.8633	22.7398	23.3033	23.0898	22.9335	22.5276	22.4106	22.172	21.6164	20.8016	20.3142	19.933	19.9517	17.9787	17.326	16.2986	14.8004	13.6381	12.8931	12.2787	11.4478	10.4174	9.8397	9.631	8.68	8.085	7.3239	6.5797	5.7963	5.0966	4.5971	4.0787	3.847	3.5231	3.7391	3.4829	3.1575	2.6863	2.6802
556	50.1013	42.1826	26.6226	13.4897	2.337	29.0678	21.6097	22.7065	25.6296	27.428	26.6112	26.6773	24.474	24.1209	22.8457	22.7152	22.3038	22.5034	21.8542	22.1763	21.6598	21.1911	20.8448	19.9455	19.7179	19.4395	18.5808	17.5982	16.6392	15.2676	14.5736	13.1531	12.4606	11.8161	10.9597	10.5679	9.9499	9.0427	8.4918	7.8542	7.1425	6.4481	5.8692	5.1364	4.5188	4.0576	3.8097	3.4442	3.5215	3.4979	2.9176	2.5321	2.5263
558	51.2776	42.4507	26.8745	13.7273	7.4607	29.934	19.2065	22.5767	24.1167	25.7989	25.5583	25.4051	23.96	22.779	22.8174	21.9927	21.486	21.7572	20.9304	21.179	21.0408	20.5793	19.4667	19.5864	19.3712	19.4116	17.8537	17.2359	16.1036	14.861	14.0379	12.846	12.1395	11.381	10.7112	10.2747	9.3865	9.0367	8.2508	7.553	7.0568	6.3878	5.7962	5.1139	4.4376	4.0355	3.7476	3.3625	3.1018	3.2623	2.9905	2.6311	2.6251
560	48.9692	46.3644	27.5139	14.1454	12.7536	29.1162	20.2756	21.0093	22.5471	24.1089	25.831	25.4808	23.1391	22.3582	21.1853	20.9115	21.1189	20.6049	20.7374	20.4635	20.3502	19.5181	18.9085	18.9657	18.8459	18.3353	17.5166	16.7831	15.738	14.3234	14.0046	12.7302	11.883	11.3577	10.67	9.6081	9.4768	8.646	7.776	7.4645	6.7984	6.3544	5.9169	5.3917	4.3518	3.9876	3.6818	3.2767	2.8434	3.3352	3.0694	2.6897	2.6836
562	43.9586	42.0936	28.1591	17.3134	18.2164	28.0627	22.7566	19.3853	20.8718	22.3571	24.3835	23.9596	23.2571	21.2917	21.0576	20.4938	19.8816	20.2556	19.4221	19.2284	18.7737	19.5272	18.6654	18.3162	17.8587	17.5278	16.944	16.3041	15.3975	14.405	13.5139	12.2807	11.9634	10.7931	10.0812	9.5042	9.1225	8.3205	7.9631	7.3084	6.449	6.2767	5.9125	5.3793	4.2613	3.9244	3.5985	3.1867	2.8498	3.1835	2.7653	2.699	2.6928
564	45.45	40.9724	28.8114	23.3674	23.8509	24.0942	22.306	17.7057	19.0902	20.5449	23.278	22.6808	21.4544	20.5643	20.3139	18.8772	19.5603	19.5066	19.2504	18.9519	19.4005	18.5971	17.9061	17.8322	17.7369	17.1976	16.3586	15.3669	14.1806	13.8097	12.5383	11.8903	11.4611	10.494	9.8814	9.1533	8.8612	8.2842	7.6304	7.1374	6.5764	6.0885	5.5693	5.121	4.733	3.8577	3.5112	3.133	2.8552	2.9372	2.915	2.6799	2.6738
566	39.3251	35.5699	29.4887	24.5473	20.2882	16.513	24.3803	15.9805	17.2603	20.6361	21.8756	22.4463	20.8129	19.5784	19.8407	19.1621	19.3585	18.9391	19.1411	18.2883	18.0369	17.6812	17.11	17.1381	16.4696	17.0911	15.9578	15.0617	14.4008	13.4831	12.4058	11.5254	10.9647	10.293	9.4043	9.1017	8.7341	7.7527	7.3367	6.8058	6.572	5.9398	5.5343	5.1259	4.6428	3.7897	3.4423	3.0987	2.8613	2.6861	3.081	2.6748	2.6687
568	42.5313	44.9637	33.4053	21.0725	10.5756	1.5791	22.8911	14.2062	18.4994	18.6419	20.4343	21.2414	20.4326	19.7467	19.1146	18.6182	18.4991	17.6936	18.1315	17.2358	16.9807	16.8716	16.5931	16.366	16.1479	16.0042	15.7731	14.4133	13.8095	13.1341	12.1637	11.541	10.8135	9.9598	9.618	9.0873	8.1553	7.6416	7.3076	6.9077	6.282	5.7924	5.201	5.1367	4.3018	3.7201	3.4131	3.0638	2.8679	2.6111	2.8862	2.6648	2.6587
570	37.4993	39.5567	35.7124	23.0025	12.1837	6.6284	25.1836	16.5858	16.4906	16.5792	18.9399	19.7051	19.5463	18.2678	18.1272	17.34	17.0976	17.0165	17.3112	17.407	16.4402	17.2134	16.4802	16.1419	15.6792	15.1856	15.3592	13.9992	13.1633	12.4263	11.8081	11.0652	10.1507	9.6781	9.1464	8.5201	7.783	7.4937	7.0347	6.6922	5.8482	5.5289	5.3261	5.0114	4.4692	3.9137	3.3815	3.0722	2.8513	2.5325	2.7062	2.7092	2.703
572	43.054	33.4887	37.2078	24.9669	13.8343	11.8682	24.3155	16.8218	14.4461	14.7942	17.4297	20.309	18.1181	17.8545	17.7967	17.4372	16.8253	16.8052	16.7203	16.7557	16.0614	16.0703	15.4088	15.4575	15.1518	14.9559	14.3339	13.6215	12.8699	12.0553	11.8017	10.5374	10.0036	9.3739	9.0577	8.5635	7.6252	7.354	6.8849	6.4779	5.9072	5.1759	5.0637	4.8468	4.5806	4.0061	3.3544	3.086	2.7936	2.4556	2.526	2.5617	2.5559
574	41.9721	39.5337	36.6887	26.9863	17.6338	17.2965	25.6645	18.7222	12.3252	13.2609	15.8587	19.2318	17.3604	17.7039	17.5593	16.8418	15.9997	16.1673	15.8486	16.0268	15.3056	15.5413	15.302	14.9036	14.5618	14.4982	13.9637	13.2785	12.9546	11.6754	10.8021	10.2702	9.1834	9.124	8.5641	7.8796	7.3123	7.1069	6.7358	6.1609	5.8525	5.4608	4.7385	4.86	4.3879	3.7847	3.3245	3.0524	2.7323	2.3747	2.0081	2.4913	2.4857
576	51.1807	41.0472	38.1216	29.0606	23.7002	22.9148	22.6111	18.3109	10.1282	11.6694	17.1687	17.9769	17.427	16.3108	16.17	15.595	16.1105	15.9489	15.3742	15.5356	15.4419	15.4588	14.471	14.4986	13.9247	13.5976	13.9391	13.1412	12.0752	11.6191	10.3455	9.7016	9.2052	9.2005	8.1504	8.028	7.4842	6.8229	6.5071	5.9859	5.5853	5.1794	4.8865	4.6578	4.1986	3.6872	3.2917	2.9924	2.6536	2.2896	1.962	2.2977	2.2924
578	45.0216	37.0925	39.7069	31.1898	25.4221	20.3277	16.2324	19.7013	7.8553	15.2305	15.3233	16.6712	16.5298	15.7852	16.0134	15.7157	16.027	16.028	15.2447	14.4992	14.5454	14.6344	13.7721	13.6418	13.7194	13.5693	13.2361	12.6814	11.6178	11.0074	10.4986	9.5122	9.1433	8.6021	7.9514	7.5379	7.2148	6.6093	6.5014	5.8927	5.5116	5.0829	4.4545	4.2873	4.2542	3.823	3.3313	2.9288	2.5707	2.237	1.9133	2.042	2.0374
580	41.541	45.8788	39.4645	33.4517	21.8572	11.8534	3.3664	20.33	13.6516	13.41	13.4116	15.3151	16.6463	15.5891	15.2598	15.3424	14.8974	15.0045	14.5647	14.2748	15.0072	14.0597	13.3312	13.5233	13.2807	12.9858	12.6763	11.9245	11.3384	10.6432	9.8405	9.2533	8.7255	8.3158	8.0584	7.276	7.2391	6.692	6.4736	5.7946	5.4276	4.9326	4.6193	4.4985	4.1449	3.5738	3.3408	2.8616	2.5023	2.2	1.862	2.0357	2.031
582	49.9844	39.2759	35.3331	31.1488	20.6876	11.6498	7.325	21.0274	14.1136	11.5294	11.7453	13.9127	15.9432	15.8205	14.5337	15.1738	14.2209	14.1695	14.6641	13.5676	13.9666	13.6669	13.449	13.0633	12.8986	13.1604	12.5634	11.7405	11.3171	10.2283	9.5712	8.8371	8.47	8.0531	7.6942	7.4002	6.8178	6.4689	5.8488	5.5248	5.42	4.6123	4.2755	4.304	3.7966	3.6273	3.4393	2.7916	2.4688	2.1614	1.8087	1.4577	1.4544
584	37.943	40.4057	36.2044	33.1406	21.6913	12.4545	11.4161	22.6289	16.1249	9.5844	10.3335	12.4593	14.9471	14.8211	14.8713	13.5969	14.0236	13.9854	13.5979	13.5978	13.3037	13.1237	12.6751	12.189	12.5623	12.4763	12.1013	11.0476	10.9014	9.8413	9.7659	8.8916	8.1889	7.8377	7.5153	7.0246	6.3359	6.4445	5.6539	5.526	4.9705	4.684	4.2847	4.087	3.9655	3.7079	3.1563	3.0794	2.4329	2.1109	1.7526	1.273	0.8026
586	39.1768	39.5004	33.7167	31.7312	22.7128	15.1041	15.6379	23.7226	16.512	7.5739	8.8717	13.2746	13.9187	13.7436	13.9211	13.6602	13.4303	13.5713	12.7358	12.667	12.9974	12.9881	12.303	11.7447	12.4549	11.7123	11.6746	10.6323	10.2367	9.6895	9.0105	8.5853	8.207	7.6191	7.2375	6.7261	6.5624	5.9921	5.5312	5.373	4.7575	4.7284	4.3119	4.0956	3.8305	3.6298	3.2713	2.855	2.3943	2.0575	1.7153	1.0816	0.2311
588	34.4971	32.9681	34.8273	32.7885	23.7519	19.6888	19.9895	20.8451	15.0227	5.4993	11.407	11.5527	12.8507	13.7106	13.3947	13.148	13.0171	12.8603	12.4539	13.1324	12.5576	12.1474	12.3123	12.0682	11.576	11.3487	11.644	10.5452	9.933	9.1993	8.9401	8.1356	7.7039	7.4838	7.1356	6.4856	6.2248	6.0874	5.5833	5.196	4.7684	4.6276	3.9352	4.0346	3.7186	3.4685	3.002	2.8753	2.353	2.0121	1.6867	0.8836	0
590	40.4152	34.1185	37.5159	31.5711	24.8122	20.7446	17.5478	15.1171	15.8075	9.6549	9.7143	9.7755	11.7454	12.733	12.7606	12.9002	12.5334	12.783	11.4656	12.4623	11.973	11.3642	11.2456	11.2914	11.2504	11.278	10.5429	10.3117	9.6222	8.8036	8.3384	7.8932	7.6403	7.3826	6.6179	6.378	5.9823	5.6148	5.6072	5.0831	4.7337	4.4482	4.1558	3.8537	3.5579	3.2721	3.1789	2.8313	2.3094	1.9866	1.5754	0.6794	0
592	41.7773	33.2146	35.7252	30.5151	27.4772	19.1621	12.2563	6.2752	15.1591	10.1972	7.9977	8.3211	10.6413	12.8169	12.3169	12.2142	12.1105	12.3336	12.2311	11.8832	12.0748	11.8231	11.1496	11.2288	11.2424	10.5433	10.0631	9.5939	9.2858	8.5526	8.3943	7.8402	7.2029	6.8304	6.5443	6.2057	5.6782	5.4831	5.2513	4.6487	4.6586	4.306	3.837	3.7942	3.5696	3.3309	2.8838	2.8861	2.5214	1.9666	1.3829	0.6477	0
594	45.7259	34.4431	35.625	31.2848	29.4439	19.9502	12.6869	9.4384	18.3883	10.3824	6.2149	7.1646	9.4906	11.7628	12.0706	12.0785	12.1644	11.5502	11.9033	11.3475	11.2511	10.7978	10.91	10.8205	10.0761	10.3	9.9969	9.6076	8.556	8.4934	8.0287	7.476	7.1994	6.6698	6.3457	5.8656	5.385	5.1128	5.0047	5.0721	4.3484	4.1352	3.7601	3.4949	3.3605	3.2538	3.0629	2.8493	2.5829	1.9446	1.2944	0	0
596	47.4609	39.9753	33.2181	32.5683	28.4564	20.3162	14.9573	12.7202	18.2573	11.1703	4.3678	5.9654	9.4314	10.9607	10.947	12.1637	11.5953	11.3867	11.315	11.0507	11.0664	10.9503	10.5147	10.6215	10.1467	9.892	9.5375	9.3736	9.0096	8.2025	7.6108	7.4248	6.7867	6.7752	6.2982	5.7583	5.6658	5.0983	4.8167	4.7271	4.2287	4.1923	3.8124	3.4966	3.2087	3.1217	3.0301	2.7711	2.4918	1.9214	1.3418	0	0
598	39.8096	43.3171	34.5101	33.3344	29.7591	21.6444	18.4898	16.1251	18.7083	10.5766	2.4543	6.9024	8.5767	10.1273	11.3006	10.5538	10.5456	10.5247	10.4966	10.8384	10.6195	10.6644	10.2893	9.62	9.8155	9.7622	9.4443	8.8739	8.4043	8.0387	7.4796	7.0336	6.5461	6.4189	6.0508	5.5045	5.3258	4.9333	4.902	4.3533	4.2525	4.0485	3.6407	3.3337	3.4233	2.9337	2.8975	2.4308	2.2814	2.0709	0	0	0
600	43.0055	34.3024	35.4637	28.5675	29.9686	25.5591	22.1456	19.6497	17.9484	11.6288	4.3293	6.0092	7.6858	9.2575	10.8351	10.696	10.651	10.5368	10.7085	10.465	9.794	9.9143	9.68	9.7392	9.285	9.5026	9.4534	8.6221	7.9819	7.7221	7.305	6.6053	6.7292	6.4054	5.939	5.6336	5.5327	4.7495	4.7746	4.3892	4.0927	3.8757	3.4809	3.5222	3.349	2.9628	2.8412	2.6103	2.3724	2.0869	0	0	0
