Description	Scan series EEM_1.prn through EEM_53.prn																																																				
EEM type	"Dilution- & Scatter-corrected, Calibrated Data (ppb QSE)"																																																				
Scan date	3/5/2013 16:03																																																				
Excitation	240-500nm by 5nm																																																				
Emission	290-600nm by 2nm																																																				
Calibration	Michael_Fluoromax4_April08 (07-Apr-2008)																																																				
Slit settings	"5nm Excitation, 5nm Emission"																																																				
Dilution	6																																																				
Row 1	Excitation(nm)																																																				
Col 1	Emission(nm)																																																				
Data	Fluorescence(ppb QSE)																																																				
																																																					
	240	245	250	255	260	265	270	275	280	285	290	295	300	305	310	315	320	325	330	335	340	345	350	355	360	365	370	375	380	385	390	395	400	405	410	415	420	425	430	435	440	445	450	455	460	465	470	475	480	485	490	495	500
290	4.1064	7.2062	3.7151	2.738	1.8992	1.1692	0.5521	0	0	0	0	0	0	0	0	0	0	0	0	0	0	0	0	0	0	0	0	0	0	0	0	0	0	0	0	0	0	0	0	0	0	0	0	0	0	0	0	0	0	0	0	0	0
292	5.5264	0.5742	3.3931	2.9867	2.1359	1.3942	0.8285	0.4663	0	0	0	0	0	0	0	0	0	0	0	0	0	0	0	0	0	0	0	0	0	0	0	0	0	0	0	0	0	0	0	0	0	0	0	0	0	0	0	0	0	0	0	0	0
294	7.6585	5.7823	4.6775	3.2293	2.3671	1.7356	1.2711	0.9224	0	0	0	0	0	0	0	0	0	0	0	0	0	0	0	0	0	0	0	0	0	0	0	0	0	0	0	0	0	0	0	0	0	0	0	0	0	0	0	0	0	0	0	0	0
296	11.9745	7.3631	4.9325	3.4611	2.7843	2.1866	2.1557	1.3666	0	0	0	0	0	0	0	0	0	0	0	0	0	0	0	0	0	0	0	0	0	0	0	0	0	0	0	0	0	0	0	0	0	0	0	0	0	0	0	0	0	0	0	0	0
298	16.8854	9.8203	8.2662	7.8357	3.2503	2.6222	3.014	1.7969	0.6688	0	0	0	0	0	0	0	0	0	0	0	0	0	0	0	0	0	0	0	0	0	0	0	0	0	0	0	0	0	0	0	0	0	0	0	0	0	0	0	0	0	0	0	0
300	20.9876	13.8144	9.2951	7.7155	3.7021	3.5127	3.637	2.2147	1.319	0	0	0	0	0	0	0	0	0	0	0	0	0	0	0	0	0	0	0	0	0	0	0	0	0	0	0	0	0	0	0	0	0	0	0	0	0	0	0	0	0	0	0	0
302	18.4564	12.3083	12.9647	7.9352	4.2066	4.4477	4.0985	3.2887	1.9819	0	0	0	0	0	0	0	0	0	0	0	0	0	0	0	0	0	0	0	0	0	0	0	0	0	0	0	0	0	0	0	0	0	0	0	0	0	0	0	0	0	0	0	0
304	22.026	18.1501	12.397	6.6615	4.0834	5.386	4.5617	4.3666	2.6471	0.7371	0	0	0	0	0	0	0	0	0	0	0	0	0	0	0	0	0	0	0	0	0	0	0	0	0	0	0	0	0	0	0	0	0	0	0	0	0	0	0	0	0	0	0
306	24.8714	20.6629	14.2579	9.4	6.4947	6.3245	5.6691	5.2361	3.3129	1.4761	0	0	0	0	0	0	0	0	0	0	0	0	0	0	0	0	0	0	0	0	0	0	0	0	0	0	0	0	0	0	0	0	0	0	0	0	0	0	0	0	0	0	0
308	26.7824	19.0829	11.924	11.1318	8.7443	7.2618	6.7761	5.895	4.1533	2.2158	0	0	0	0	0	0	0	0	0	0	0	0	0	0	0	0	0	0	0	0	0	0	0	0	0	0	0	0	0	0	0	0	0	0	0	0	0	0	0	0	0	0	0
310	31.2968	23.2379	19.5844	15.2399	9.3607	7.8999	7.8849	6.5548	4.995	2.9567	0.785	0	0	0	0	0	0	0	0	0	0	0	0	0	0	0	0	0	0	0	0	0	0	0	0	0	0	0	0	0	0	0	0	0	0	0	0	0	0	0	0	0	0
312	23.5827	29.012	22.5206	15.1872	10.026	8.9338	8.9413	7.3441	5.7447	3.6763	1.5618	0	0	0	0	0	0	0	0	0	0	0	0	0	0	0	0	0	0	0	0	0	0	0	0	0	0	0	0	0	0	0	0	0	0	0	0	0	0	0	0	0	0
314	33.3002	24.3727	22.5739	16.9002	9.903	10.485	9.9863	8.1247	6.4285	4.4254	2.3303	0	0	0	0	0	0	0	0	0	0	0	0	0	0	0	0	0	0	0	0	0	0	0	0	0	0	0	0	0	0	0	0	0	0	0	0	0	0	0	0	0	0
316	28.3519	31.9176	28.2193	19.7919	11.3449	10.1783	11.7275	8.8671	7.081	5.1492	3.0802	0.7977	0	0	0	0	0	0	0	0	0	0	0	0	0	0	0	0	0	0	0	0	0	0	0	0	0	0	0	0	0	0	0	0	0	0	0	0	0	0	0	0	0
318	36.1607	29.2952	28.9009	17.954	13.1591	10.927	12.7668	9.5631	7.731	5.8279	3.804	1.5762	0	0	0	0	0	0	0	0	0	0	0	0	0	0	0	0	0	0	0	0	0	0	0	0	0	0	0	0	0	0	0	0	0	0	0	0	0	0	0	0	0
320	36.8122	30.5247	26.1067	20.6097	12.6077	10.7964	12.8474	10.2394	8.3629	6.4764	4.4874	2.3355	0	0	0	0	0	0	0	0	0	0	0	0	0	0	0	0	0	0	0	0	0	0	0	0	0	0	0	0	0	0	0	0	0	0	0	0	0	0	0	0	0
322	41.754	34.5391	25.154	22.3878	15.7846	12.4035	13.1271	11.747	8.9352	7.0742	5.1288	3.0614	0.7566	0	0	0	0	0	0	0	0	0	0	0	0	0	0	0	0	0	0	0	0	0	0	0	0	0	0	0	0	0	0	0	0	0	0	0	0	0	0	0	0
324	39.4484	37.7797	32.5048	24.7652	15.125	13.707	12.7786	11.4761	9.4828	7.6274	5.7525	3.7609	1.4871	0	0	0	0	0	0	0	0	0	0	0	0	0	0	0	0	0	0	0	0	0	0	0	0	0	0	0	0	0	0	0	0	0	0	0	0	0	0	0	0
326	44.9037	33.1806	30.6582	23.0553	15.071	12.8081	13.1365	12.8688	10.0013	8.1532	6.3553	4.3516	2.1907	0	0	0	0	0	0	0	0	0	0	0	0	0	0	0	0	0	0	0	0	0	0	0	0	0	0	0	0	0	0	0	0	0	0	0	0	0	0	0	0
328	42.6719	33.7379	31.8594	21.875	17.3644	14.5915	14.2274	12.7652	11.6338	8.6507	6.9291	4.916	2.8662	0.8346	0	0	0	0	0	0	0	0	0	0	0	0	0	0	0	0	0	0	0	0	0	0	0	0	0	0	0	0	0	0	0	0	0	0	0	0	0	0	0
330	39.6014	39.6046	28.2566	21.8989	18.3145	14.0856	15.2759	14.2624	12.4451	9.1232	7.4022	5.4814	3.5144	1.6373	0	0	0	0	0	0	0	0	0	0	0	0	0	0	0	0	0	0	0	0	0	0	0	0	0	0	0	0	0	0	0	0	0	0	0	0	0	0	0
332	40.5704	39.2732	32.6309	24.8453	18.3034	15.7335	14.9025	14.9099	13.5595	9.4682	7.7675	5.9817	4.4157	2.3824	0	0	0	0	0	0	0	0	0	0	0	0	0	0	0	0	0	0	0	0	0	0	0	0	0	0	0	0	0	0	0	0	0	0	0	0	0	0	0
334	41.9026	37.7592	31.2488	25.9682	19.2572	15.8354	12.6128	14.7133	14.1773	11.3205	8.0964	6.4407	5.2548	3.0784	0.8924	0	0	0	0	0	0	0	0	0	0	0	0	0	0	0	0	0	0	0	0	0	0	0	0	0	0	0	0	0	0	0	0	0	0	0	0	0	0
336	43.323	37.732	32.4385	24.6949	18.7053	16.565	15.4926	13.5139	13.418	11.5766	8.3972	7.163	5.9361	3.7291	1.7296	0	0	0	0	0	0	0	0	0	0	0	0	0	0	0	0	0	0	0	0	0	0	0	0	0	0	0	0	0	0	0	0	0	0	0	0	0	0
338	45.5709	38.9999	33.8411	24.7218	18.6904	15.6225	15.4467	13.9265	13.8233	12.5209	8.6718	7.8347	6.4717	4.673	2.5144	0	0	0	0	0	0	0	0	0	0	0	0	0	0	0	0	0	0	0	0	0	0	0	0	0	0	0	0	0	0	0	0	0	0	0	0	0	0
340	40.6449	41.4154	33.4015	27.7961	19.7608	17.3813	14.2374	13.8865	13.7106	12.4359	10.5371	8.4493	6.9613	5.5493	3.2457	1.0067	0	0	0	0	0	0	0	0	0	0	0	0	0	0	0	0	0	0	0	0	0	0	0	0	0	0	0	0	0	0	0	0	0	0	0	0	0
342	42.8647	38.1103	34.555	27.4304	19.6934	16.4468	16.498	14.9406	13.9017	12.5762	11.7177	9.0559	7.7604	6.2872	3.9449	1.9578	0	0	0	0	0	0	0	0	0	0	0	0	0	0	0	0	0	0	0	0	0	0	0	0	0	0	0	0	0	0	0	0	0	0	0	0	0
344	44.467	38.9198	33.4556	27.2958	22.7525	17.6055	16.3924	15.4929	14.8339	13.5357	11.4225	9.6146	8.503	6.8718	5.0168	2.8533	0.3128	0	0	0	0	0	0	0	0	0	0	0	0	0	0	0	0	0	0	0	0	0	0	0	0	0	0	0	0	0	0	0	0	0	0	0	0
346	40.122	38.9538	34.5199	26.9694	21.282	17.4288	15.5569	15.4917	15.3616	14.2071	12.6562	9.9055	9.2132	7.4309	6.0352	3.7028	1.3761	0	0	0	0	0	0	0	0	0	0	0	0	0	0	0	0	0	0	0	0	0	0	0	0	0	0	0	0	0	0	0	0	0	0	0	0
348	47.1942	40.9674	35.4732	27.4353	20.8867	18.0372	16.8055	16.135	14.7671	14.9551	13.2205	11.8631	9.8984	8.3655	6.8967	4.5136	2.387	0.5517	0	0	0	0	0	0	0	0	0	0	0	0	0	0	0	0	0	0	0	0	0	0	0	0	0	0	0	0	0	0	0	0	0	0	0
350	55.9674	44.4236	35.48	28.0522	22.3643	19.287	17.98	16.7413	16.0702	15.0307	14.1092	13.0699	10.5367	9.243	7.5969	5.4166	3.3447	1.6077	0	0	0	0	0	0	0	0	0	0	0	0	0	0	0	0	0	0	0	0	0	0	0	0	0	0	0	0	0	0	0	0	0	0	0
352	48.8914	43.0097	38.1541	28.9583	23.2758	18.5308	17.9083	17.4081	16.7297	15.3232	15.2244	13.4812	12.096	10.0654	8.2528	6.2675	4.2499	2.2318	0.7761	0	0	0	0	0	0	0	0	0	0	0	0	0	0	0	0	0	0	0	0	0	0	0	0	0	0	0	0	0	0	0	0	0	0
354	53.0575	48.5709	38.6121	29.336	24.1825	19.5678	17.995	17.9048	17.269	16.9718	15.159	13.7975	13.2152	10.8309	8.9937	7.0654	5.3508	3.5514	1.782	0	0	0	0	0	0	0	0	0	0	0	0	0	0	0	0	0	0	0	0	0	0	0	0	0	0	0	0	0	0	0	0	0	0
356	47.5496	49.1146	37.8383	30.7127	23.3315	21.1505	19.8184	18.3223	18.2062	17.1673	16.1463	15.6163	14.231	11.5792	9.9567	8.3224	6.6268	4.812	3.0098	0.6648	0	0	0	0	0	0	0	0	0	0	0	0	0	0	0	0	0	0	0	0	0	0	0	0	0	0	0	0	0	0	0	0	0
358	53.2812	42.5972	38.9014	32.153	24.6598	21.8026	20.4542	19.542	18.7816	17.4887	16.3287	16.0097	14.9597	12.9561	11.1363	9.5425	7.8163	6.0276	4.195	1.8585	0.557	0	0	0	0	0	0	0	0	0	0	0	0	0	0	0	0	0	0	0	0	0	0	0	0	0	0	0	0	0	0	0	0
360	49.8571	49.0789	40.5988	34.4648	26.4331	22.5992	19.9344	19.3908	19.9544	18.9463	17.8062	17.0991	16.4713	14.3849	12.2554	10.6581	8.9481	7.186	5.4287	3.2644	0.9114	0	0	0	0	0	0	0	0	0	0	0	0	0	0	0	0	0	0	0	0	0	0	0	0	0	0	0	0	0	0	0	0
362	51.6668	51.8197	42.149	35.706	27.0372	24.2749	22.6326	20.3468	20.1826	19.5993	18.3763	17.6987	17.6349	15.9418	13.4082	11.776	10.0792	8.4514	6.6503	4.2735	2.2501	0.4686	0	0	0	0	0	0	0	0	0	0	0	0	0	0	0	0	0	0	0	0	0	0	0	0	0	0	0	0	0	0	0
364	61.7966	51.3338	44.3957	37.8975	29.4378	24.9521	22.7972	22.1827	21.565	20.4038	19.9095	19.1254	18.297	16.6622	15.4011	12.8541	11.171	9.8823	7.8315	5.5196	3.1779	1.5157	0	0	0	0	0	0	0	0	0	0	0	0	0	0	0	0	0	0	0	0	0	0	0	0	0	0	0	0	0	0	0
366	56.1605	56.0961	46.6485	35.3617	30.3695	25.196	23.8913	22.9297	22.4705	20.9015	21.402	20.7295	19.2898	18.4286	16.9303	13.9038	12.4383	11.2733	8.9796	6.7313	4.2545	2.0219	0.4769	0	0	0	0	0	0	0	0	0	0	0	0	0	0	0	0	0	0	0	0	0	0	0	0	0	0	0	0	0	0
368	66.1689	52.6424	49.7535	39.5442	31.3259	26.7137	26.3712	23.7845	23.2449	22.5803	21.7316	21.1499	21.124	20.1016	18.3501	14.9282	13.7744	12.3644	10.1101	7.9104	5.6352	2.7557	0.7902	0	0	0	0	0	0	0	0	0	0	0	0	0	0	0	0	0	0	0	0	0	0	0	0	0	0	0	0	0	0
370	58.9447	56.2764	48.1446	41.341	32.912	28.8908	26.1866	25.0794	24.5536	23.9153	23.3629	22.412	22.228	21.2577	19.6908	17.3013	15.0665	13.4189	11.2284	9.0522	6.8688	3.9059	1.6646	0	0	0	0	0	0	0	0	0	0	0	0	0	0	0	0	0	0	0	0	0	0	0	0	0	0	0	0	0	0
372	70.0605	60.0438	51.3919	42.7854	35.9606	29.8581	26.7445	25.8183	26.3446	24.9982	24.2383	24.0051	23.7056	22.4817	20.9279	19.4015	16.3982	14.5352	12.3723	10.4606	8.0867	4.8243	2.679	0.9605	0	0	0	0	0	0	0	0	0	0	0	0	0	0	0	0	0	0	0	0	0	0	0	0	0	0	0	0	0
374	73.0841	62.0562	53.5958	45.112	36.0749	32.5185	29.1019	27.6115	27.557	26.5365	26.1243	25.245	25.3081	24.1122	23.1168	20.6993	17.701	15.8911	13.9932	12.0887	9.2793	6.3225	3.4726	1.6095	0	0	0	0	0	0	0	0	0	0	0	0	0	0	0	0	0	0	0	0	0	0	0	0	0	0	0	0	0
376	67.5453	62.8108	56.7378	44.2945	38.8293	32.2778	30.1292	28.3576	26.9253	27.0538	27.4354	26.9765	26.8627	26.5061	24.8386	22.9136	19.4362	17.4519	15.5664	13.302	10.4376	7.4959	4.3272	2.6451	0.3907	0	0	0	0	0	0	0	0	0	0	0	0	0	0	0	0	0	0	0	0	0	0	0	0	0	0	0	0
378	73.1462	66.7952	57.7447	49.6266	39.5825	35.2295	32.0338	30.1454	30.3266	29.0788	29.0932	29.0819	29.3232	28.0204	25.3946	24.0782	21.1749	18.9583	17.0871	14.4732	11.5583	8.7499	5.9356	3.2181	1.4897	0	0	0	0	0	0	0	0	0	0	0	0	0	0	0	0	0	0	0	0	0	0	0	0	0	0	0	0
380	76.8152	66.6162	61.4616	49.5395	42.2104	35.2552	33.7281	31.4767	31.4814	30.2632	30.0539	31.6011	30.2402	29.4723	27.9927	26.2935	23.4231	20.424	18.2041	15.5783	12.6492	9.9719	7.3303	4.1442	2.0058	0.1847	0	0	0	0	0	0	0	0	0	0	0	0	0	0	0	0	0	0	0	0	0	0	0	0	0	0	0
382	78.8082	70.3294	64.1862	50.8899	43.2444	37.4485	34.8589	33.2206	32.6013	31.112	32.509	32.1853	31.6506	30.7879	29.2083	28.2599	25.0522	21.9489	19.3773	16.6946	14.0486	11.2128	8.1557	5.0878	2.7034	1.1356	0	0	0	0	0	0	0	0	0	0	0	0	0	0	0	0	0	0	0	0	0	0	0	0	0	0	0
384	83.6478	72.4546	60.7708	54.5223	44.4745	39.808	37.4464	34.6648	33.4252	32.7682	33.6476	33.6059	33.5278	31.5259	30.4482	28.5691	26.9376	23.7622	20.5304	17.7919	15.4253	12.4337	9.2636	6.552	3.9097	1.9126	0	0	0	0	0	0	0	0	0	0	0	0	0	0	0	0	0	0	0	0	0	0	0	0	0	0	0
386	83.1523	76.7602	63.8231	56.0909	47.3982	40.3742	38.2186	35.7904	34.6602	33.0803	34.0568	35.0375	36.045	34.9168	32.5444	30.7834	28.3418	25.521	21.7444	19.2169	16.765	13.6853	10.3921	7.5965	4.8758	2.725	0.8673	0	0	0	0	0	0	0	0	0	0	0	0	0	0	0	0	0	0	0	0	0	0	0	0	0	0
388	85.8177	79.2435	67.7319	56.2505	49.4645	43.6592	38.4384	35.9338	35.5081	35.1309	36.1996	36.7717	37.0327	35.7968	34.4514	32.4356	29.9317	27.303	23.0339	20.7073	18.0842	14.8802	11.5543	9.1374	5.9026	3.6854	1.4955	0	0	0	0	0	0	0	0	0	0	0	0	0	0	0	0	0	0	0	0	0	0	0	0	0	0
390	85.195	80.1255	67.0525	60.8358	49.4562	44.8668	40.7516	38.303	36.9915	36.0173	37.0244	38.1611	38.5754	38.5288	36.6142	34.2221	31.4275	29.0539	24.7544	22.197	19.4028	16.0744	12.7158	9.5781	7.461	4.3523	2.5733	0.4392	0	0	0	0	0	0	0	0	0	0	0	0	0	0	0	0	0	0	0	0	0	0	0	0	0
392	89.689	79.6729	70.3645	62.3903	53.6963	47.2777	43.3063	39.8701	38.4866	37.9379	38.7907	39.576	40.9476	39.2569	38.6184	36.3744	33.2976	30.3899	26.9133	23.5443	20.4932	17.1647	13.8944	10.9249	8.0863	5.3179	2.9408	1.3184	0	0	0	0	0	0	0	0	0	0	0	0	0	0	0	0	0	0	0	0	0	0	0	0	0
394	93.9426	80.8023	72.4246	65.0912	54.7202	47.8389	43.0317	40.9426	40.5093	40.7125	39.4215	40.6533	41.5724	40.4946	39.8434	38.3252	34.9694	32.1844	28.8347	24.8729	21.6731	18.4457	15.2054	12.2541	9.6166	6.5872	3.857	2.1642	0.0751	0	0	0	0	0	0	0	0	0	0	0	0	0	0	0	0	0	0	0	0	0	0	0	0
396	95.0917	84.0407	78.0658	64.5277	57.0216	51.9922	45.3581	41.9027	40.3643	40.9557	40.4244	41.7732	43.2106	42.8561	41.5444	38.9856	36.9639	33.896	30.7967	27.3328	22.9762	19.7397	16.6209	13.5867	10.7445	7.983	4.8654	2.9941	0.7932	0	0	0	0	0	0	0	0	0	0	0	0	0	0	0	0	0	0	0	0	0	0	0	0
398	99.7229	92.7683	81.0078	65.9853	58.6483	51.8826	47.6328	43.2186	42.0259	42.147	42.2173	43.4444	44.2054	44.3787	43.5607	41.5309	38.2576	36.0308	32.2299	28.5915	24.3037	21.1523	18.0502	14.9291	12.0156	9.5354	6.3724	3.4724	2.0642	0	0	0	0	0	0	0	0	0	0	0	0	0	0	0	0	0	0	0	0	0	0	0	0
400	104.6348	92.8611	77.1126	69.7208	61.4823	55.3703	48.6101	45.4351	43.337	42.8932	44.1088	44.6816	46.8002	45.6632	46.2258	43.0867	40.1787	37.8819	34.4534	30.6035	25.6219	22.6047	19.4067	16.2709	13.2781	10.1276	7.3502	4.4029	2.7769	0.5292	0	0	0	0	0	0	0	0	0	0	0	0	0	0	0	0	0	0	0	0	0	0	0
402	111.7339	92.0906	84.0336	73.7526	63.7823	54.2211	50.4231	45.6135	44.9345	44.3097	45.3116	46.3971	47.8388	48.9243	46.7625	45.5874	42.5271	39.9391	36.4668	32.8853	27.7647	24.0059	20.7183	17.5902	14.5072	11.5048	8.8192	5.497	3.4473	1.6585	0	0	0	0	0	0	0	0	0	0	0	0	0	0	0	0	0	0	0	0	0	0	0
404	111.0306	98.4689	85.6224	75.2147	63.9845	59.182	52.6662	49.701	45.5829	45.1635	46.9424	48.9435	48.9875	49.4434	48.042	46.862	44.2681	41.6563	38.1769	34.6773	30.0966	25.3919	22.0328	18.8953	15.7232	12.6096	9.6622	6.4287	4.0954	2.4266	0.1003	0	0	0	0	0	0	0	0	0	0	0	0	0	0	0	0	0	0	0	0	0	0
406	108.593	97.8818	88.1022	78.3406	66.8867	59.8678	52.5607	48.3407	47.569	46.3173	48.488	50.1827	50.691	51.3342	51.4136	48.6075	46.784	43.3157	39.4396	36.5666	32.2654	26.813	23.3851	20.1361	16.9176	13.7283	10.8107	7.7188	4.6071	3.3256	0.9738	0	0	0	0	0	0	0	0	0	0	0	0	0	0	0	0	0	0	0	0	0	0
408	118.1294	101.2393	89.3077	79.6172	70.1897	63.0698	54.8152	50.6441	49.7449	47.7369	49.4717	50.3821	52.8923	52.125	52.4333	50.1075	48.2114	45.5654	41.5385	38.6141	34.1455	29.1558	24.7747	21.4086	18.0574	14.8673	11.7671	8.7196	5.9025	3.8742	2.1547	0	0	0	0	0	0	0	0	0	0	0	0	0	0	0	0	0	0	0	0	0	0
410	117.8021	106.7159	94.6949	82.6007	73.9536	61.8345	56.2647	52.6269	51.0186	50.6944	51.1491	52.0248	54.1656	55.8398	54.9721	51.7161	49.6805	47.6605	43.724	39.8929	36.169	31.6701	26.1607	22.596	19.194	16.1554	12.9398	9.7321	7.1639	4.3888	2.6829	0.6418	0	0	0	0	0	0	0	0	0	0	0	0	0	0	0	0	0	0	0	0	0
412	118.0138	106.2391	98.2199	82.8505	76.457	68.061	60.2239	53.7459	52.5832	51.3466	51.7493	52.9541	56.2228	56.6636	55.0785	54.3123	51.5311	48.3227	45.4189	42.0082	37.8252	33.3431	27.5451	23.8961	20.6345	17.5934	14.1103	11.2636	7.8826	5.2831	3.5746	1.5968	0	0	0	0	0	0	0	0	0	0	0	0	0	0	0	0	0	0	0	0	0
414	126.1053	111.1003	96.822	86.9887	77.7373	67.1586	60.7147	54.9212	52.6025	52.6967	53.2829	54.339	55.8975	57.0192	57.2952	55.7102	53.4962	50.8525	47.6139	44.0352	39.7624	35.1115	30.0147	25.3477	22.0715	18.7553	15.2778	11.8917	9.0722	6.3341	4.1361	2.5235	0.1683	0	0	0	0	0	0	0	0	0	0	0	0	0	0	0	0	0	0	0	0
416	120.0883	104.8416	97.3465	87.8191	78.6707	69.8875	62.2503	57.0792	54.7595	53.3632	53.3363	56.3219	57.4758	59.362	58.0264	57.9093	54.4734	51.8948	49.3611	45.1204	41.586	37.6603	32.0013	26.8567	23.5585	19.9595	16.4797	13.0232	9.88	7.2811	5.0267	3.212	1.4395	0	0	0	0	0	0	0	0	0	0	0	0	0	0	0	0	0	0	0	0
418	125.5553	119.1077	102.1548	90.8006	79.8716	72.0907	64.5305	57.1764	56.1087	54.5063	54.7696	57.1906	58.0057	59.7536	59.6895	59.1682	57.8966	54.505	51.4314	47.6873	43.7656	38.4863	33.8461	28.4334	24.8303	21.2142	17.7773	14.3059	11.0767	8.2891	5.801	4.064	2.2504	0	0	0	0	0	0	0	0	0	0	0	0	0	0	0	0	0	0	0	0
420	122.7499	114.2707	104.9776	94.3675	84.6342	75.5918	66.1574	60.8935	56.5463	55.3918	55.9957	57.7908	59.8419	61.009	61.9913	59.7693	58.575	55.7703	53.2984	49.6349	45.0274	40.3525	35.5415	30.0201	26.1637	22.5834	19.0897	15.5968	12.6439	9.2827	6.6349	4.5579	3.0638	0.9837	0	0	0	0	0	0	0	0	0	0	0	0	0	0	0	0	0	0	0
422	130.2635	117.3067	106.2939	95.5073	84.8268	76.2327	67.329	62.076	58.77	57.1908	57.5902	58.6828	61.6331	62.2449	62.4079	61.3499	60.3093	57.7654	54.4494	50.6203	46.8971	42.6793	37.538	32.2444	27.5658	23.9672	20.3212	16.8998	13.5136	10.3225	7.7048	5.191	3.7742	2.044	0	0.0121	0.0141	0	0	0	0	0	0	0	0	0	0	0	0	0	0	0	0
424	126.342	124.0073	108.8094	98.8811	86.433	76.8739	67.9387	62.5617	59.5342	59.1681	57.7383	59.3922	61.7743	63.3721	62.3435	63.1965	61.6724	60.1149	57.0241	52.4741	48.1254	44.0052	39.8276	33.8573	28.9773	25.2658	21.5609	18.2117	14.5824	11.3948	8.3903	6.1908	4.2345	2.4724	0.5047	0.0363	0.0283	0	0	0	0	0	0	0	0	0	0	0	0	0	0	0	0
426	138.6077	123.6038	108.1167	100.3628	90.1891	79.1337	70.0163	64.4074	61.0765	57.9806	58.2857	60.4665	63.4379	64.3297	64.6746	64.3218	63.1543	61.1243	58.3444	55.2536	49.9176	45.5435	41.2008	36.0236	30.4475	26.5686	22.9262	19.4272	15.6837	12.5036	9.4468	6.9107	5.0695	3.1759	1.3937	0.0608	0.0427	0	0	0	0	0	0	0	0	0	0	0	0	0	0	0	0
428	131.4692	121.4107	109.6246	101.2264	90.6984	80.1532	72.6071	64.8778	60.7517	59.8917	59.6435	60.8982	63.0898	64.9297	65.2665	65.8321	64.591	62.5236	59.526	56.6714	52.6767	48.0395	42.4112	37.754	32.5879	27.9283	24.3435	20.4121	16.8225	13.4786	10.3358	7.72	5.629	4.1742	2.0953	0.0856	0.0287	0	0	0	0	0	0	0	0	0	0	0	0	0	0	0	0
430	139.663	128.4803	114.1689	100.4721	93.6881	82.0739	73.0871	65.6764	63.0113	60.7596	59.2447	61.6389	63.7042	65.6982	66.0896	66.8821	66.5186	63.5593	61.5199	58.8202	54.0602	48.5733	44.1013	39.6782	34.4907	29.3039	25.5012	21.4083	17.975	14.534	11.1126	8.7518	6.4803	4.3155	2.9849	0.9285	0.0144	0	0	0	0	0	0	0	0	0	0	0	0	0	0	0	0
432	148.4652	131.0153	117.5541	102.9924	94.4216	83.4093	74.7527	69.662	63.683	61.9581	61.4472	62.5531	65.2877	67.4336	68.0014	67.7739	67.59	64.8421	62.6726	59.1008	55.4355	50.8846	45.24	40.4609	35.9424	30.6618	26.5039	22.5708	19.0927	15.585	12.3954	9.5695	7.2157	5.2358	3.7866	1.9803	0	0.0674	0.0788	0	0	0	0	0	0	0	0	0	0	0	0	0	0
434	137.1768	120.9523	117.2871	103.7126	97.1993	86.5747	76.859	69.4806	63.7638	62.5106	61.7856	63.0433	65.1535	66.5532	68.3015	68.8327	67.5753	66.8008	64.0656	60.6555	56.7233	52.1348	46.3451	41.676	37.5856	32.952	27.5161	23.7448	20.1661	16.6467	13.2981	10.1366	8.1527	5.72	4.3788	2.8072	0.575	0.2033	0.1584	0	0	0	0	0	0	0	0	0	0	0	0	0	0
436	140.3054	126.8274	117.2232	106.6512	95.5801	88.3828	79.218	69.2366	66.6586	64.0603	62.6052	63.7255	65.6705	67.891	68.9054	69.267	68.9054	67.8589	65.5689	61.649	57.7428	52.8452	47.9501	43.3284	39.3724	34.193	28.5745	24.9065	21.2774	17.7417	14.1347	11.0097	9.1277	6.5802	4.8519	3.3602	1.6023	0.3411	0.2391	0	0	0	0	0	0	0	0	0	0	0	0	0	0
438	138.6364	129.7834	115.7259	106.9508	98.2948	88.7603	78.7367	70.9487	67.4183	63.6038	62.9143	64.9141	65.8811	68.3875	70.559	70.6136	69.9081	68.4378	67.31	63.4135	59.2559	55.0067	49.6256	43.9283	39.7164	35.3054	29.6825	26.0346	22.3258	18.716	14.9858	12.3151	9.9018	7.2663	5.3408	3.992	2.197	0.4812	0.1606	0	0	0	0	0	0	0	0	0	0	0	0	0	0
440	139.636	131.5587	121.1475	109.7336	97.9418	88.9626	80.981	72.5049	67.2337	64.3322	62.6247	65.2082	66.7058	68.4288	69.7117	70.5242	70.1699	69.6734	68.3596	64.5652	60.9231	56.021	50.5675	45.3512	41.1937	37.1879	31.3865	27.0195	23.2827	19.5111	15.8485	12.91	10.6387	8.2812	5.811	4.5258	2.6953	0.9841	0.0809	0	0	0	0	0	0	0	0	0	0	0	0	0	0
442	137.2821	129.8244	120.7379	111.9135	98.7311	90.8365	80.4967	73.0086	69.4921	65.2022	64.2471	64.7343	67.3513	68.0906	70.13	71.165	71.9355	70.6206	68.4754	65.4336	61.2854	57.5892	52.1332	46.2781	42.7852	37.8994	33.0623	27.9952	24.2332	20.0205	16.7099	13.6365	11.0815	9.0075	6.9181	4.7945	3.4958	2.0036	0	0.0579	0.067	0	0	0	0	0	0	0	0	0	0	0	0
444	142.5134	133.2485	118.8687	108.6868	103.2915	92.2349	81.2228	73.4458	69.0001	66.3013	65.7006	65.1111	68.1816	69.0549	70.9618	71.3654	71.9231	70.8942	70.1941	67.3405	63.1899	58.497	52.3676	47.7773	43.4224	39.4595	34.1645	28.9819	24.9143	20.5351	17.5819	14.3717	11.9979	9.5573	7.6374	5.5526	4.0714	2.5329	0.7534	0.1749	0.1349	0	0	0	0	0	0	0	0	0	0	0	0
446	142.1917	136.7741	121.9366	110.1444	103.7306	93.5512	83.0539	75.3153	68.9754	65.0865	65.7485	64.9882	67.5086	68.5125	70.4155	71.8799	73.5345	71.7979	70.4746	67.3729	63.8268	58.6732	53.5744	48.9749	44.4914	40.226	35.0498	29.9992	25.4777	21.447	18.3307	15.1254	13.0514	10.4417	8.2364	6.0976	4.613	3.1796	1.5597	0.2936	0.2039	0.0056	0	0	0	0	0	0	0	0	0	0	0
448	152.8377	131.8158	122.934	113.3574	102.6972	91.7232	83.925	75.7972	70.0255	66.7106	65.934	66.0408	67.5464	70.1586	70.4102	71.7711	74.0589	72.0349	70.6263	68.3976	64.8853	60.0034	55.1596	49.8238	45.2066	41.1207	36.1567	30.6139	26.0636	22.3847	18.8074	15.8991	13.4957	11.2956	8.6725	6.6931	5.029	3.7818	2.2943	0.4144	0.1503	0.0114	0	0	0	0	0	0	0	0	0	0	0
450	137.596	134.0109	122.2809	114.8583	104.1224	92.3644	84.1816	77.1857	71.6341	67.9681	65.9513	65.8292	67.5055	68.9666	70.6308	72.3494	72.8807	73.1532	71.8523	68.6002	64.8347	59.9404	55.1884	49.7591	45.9818	42.5929	37.4216	31.5605	26.6557	23.0406	19.2895	16.6833	14.1742	11.7445	9.6426	7.543	5.3621	4.1844	2.7961	1.2433	0.0958	0.0172	0	0	0	0	0	0	0	0	0	0	0
452	142.0613	132.7967	122.9997	111.9846	104.0372	95.4167	87.3114	76.835	69.3261	66.5386	65.9769	66.4987	66.8146	70.0362	70.1119	71.533	72.1108	73.2555	71.9495	69.4095	65.8337	61.4226	55.934	50.8799	46.4917	42.9502	37.4964	33.1299	27.2666	23.5665	20.1148	17.4547	14.8687	12.8739	10.1916	8.4522	6.1776	4.56	3.3614	1.7065	0.0405	0.1082	0.1066	0	0	0	0	0	0	0	0	0	0
454	156.3532	132.3781	119.7243	114.4715	107.0015	95.6806	85.5793	76.6046	71.4962	67.5991	67.061	66.0231	66.7045	69.2035	70.8831	73.3135	73.3477	72.8273	71.1292	69.7539	66.0238	61.85	56.9666	51.7893	47.5343	43.3547	38.4853	33.8122	28.745	24.098	20.9513	18.1732	15.5729	13.1666	10.7984	8.7914	6.7687	5.1981	3.8671	2.3103	1.1637	0.2865	0.215	0	0	0	0	0	0	0	0	0	0
456	137.4638	130.2757	123.8708	113.7503	104.8323	94.2209	87.8427	77.4868	71.6995	67.4738	65.8507	65.5063	67.041	68.4591	70.6325	71.3551	73.7258	72.6081	71.6363	70.036	65.9298	62.2332	56.2634	52.0351	48.0431	43.7855	38.7907	34.4099	29.0596	24.6733	21.7684	18.9304	16.3118	13.5011	11.6281	9.5683	7.63	5.708	4.528	3.0083	1.4206	0.4683	0.3256	0	0	0	0	0	0	0	0	0	0
458	146.5606	136.8456	124.3268	114.653	106.4297	95.9077	87.6403	77.7479	72.667	66.7419	65.7476	65.2224	66.1314	68.8642	69.2926	72.0121	72.5479	74.4508	72.0546	70.8643	66.4746	61.9433	56.7597	52.5228	48.4893	44.7772	40.4766	35.4633	30.6116	25.2938	22.476	19.4821	16.7136	14.0334	12.2196	9.8646	7.832	6.2723	4.591	3.3736	2.0638	0.6547	0.2195	0	0	0	0	0	0	0	0	0	0
460	144.8093	134.7936	121.8375	113.5812	103.5473	95.6338	87.4453	79.0258	71.4996	67.0048	67.0666	65.2227	67.2522	68.3908	69.8972	71.874	72.1809	73.0246	70.9729	69.6704	67.6695	62.4604	57.9259	52.9987	49.5743	45.0502	40.5664	36.3611	31.2396	25.8063	22.8193	19.792	17.0149	14.5743	12.9408	10.5805	8.5939	6.7266	5.0309	3.8758	2.6387	1.1357	0.1109	0	0	0	0	0	0	0	0	0	0
462	140.3539	129.0514	119.707	113.506	104.3161	95.9851	88.1564	78.9668	71.2368	66.928	65.4192	65.1348	66.9968	67.5397	69.2135	71.0973	71.5816	72.6366	71.5626	70.0692	66.7365	62.9721	57.1201	53.4928	50.1736	44.9707	41.5991	36.1203	31.9203	27.3155	23.1902	20.1261	17.38	15.1403	13.158	10.9801	8.9985	7.2113	5.4225	4.4479	3.0337	1.7091	0	0	0	0	0	0	0	0	0	0	0
464	139.1999	130.3082	122.6615	112.7669	106.6423	95.0679	87.2391	79.1249	73.353	67.9394	65.8093	65.0117	65.6818	67.1385	68.9982	70.7196	71.7057	73.0352	72.232	69.968	66.8028	62.9653	57.844	53.0523	49.6436	44.8588	41.6406	37.0617	31.9445	28.1122	23.5634	20.5049	17.7489	15.7156	13.4889	11.6928	9.2839	7.9589	6.113	4.6956	3.5309	2.0668	0.7239	0	0	0	0	0	0	0	0	0	0
466	136.4951	130.6767	121.4454	112.9226	105.2852	97.0105	87.435	78.7084	72.7109	67.6385	65.7184	64.7622	65.0651	66.6683	67.6073	69.5414	70.5721	71.9191	71.5798	69.4424	67.1187	63.0501	57.906	53.1729	49.4569	46.0845	42.3015	37.329	32.4013	28.6442	23.9462	20.9147	18.3619	16.1451	13.8282	12.463	10.1328	8.2655	6.4433	5.1176	3.6099	2.5668	1.2478	0	0	0	0	0	0	0	0	0	0
468	133.7301	129.1519	118.7038	113.9487	108.2846	95.9901	87.2428	79.258	70.9183	67.6989	65.7828	64.9634	64.9177	66.7839	67.2016	68.9012	70.7474	70.6396	71.068	68.5141	67.1155	63.0282	57.1293	53.2741	49.5245	46.6299	42.693	37.2215	33.0782	28.989	24.7813	21.335	18.9902	16.2607	14.176	12.3098	10.2667	8.3441	6.9857	5.4113	4.0152	2.8789	1.7773	0	0	0	0	0	0	0	0	0	0
470	130.8611	130.04	119.2397	108.5387	105.5748	96.3653	86.2743	77.6393	73.3746	66.9811	64.9219	65.2499	65.087	65.7091	68.2274	68.9269	70.1134	70.8079	70.0515	68.4497	65.9362	62.878	57.7653	52.8553	50.1446	46.8953	42.1035	37.5826	32.8851	29.6309	25.5113	21.7593	19.301	16.3743	14.5282	12.5335	10.8663	9.0595	7.3657	5.5644	4.1954	3.3017	2.2402	0.8247	0	0	0	0	0	0	0	0	0
472	128.2004	122.9964	117.7582	108.6492	106.1458	96.4999	88.2082	79.0721	71.6771	66.564	65.1145	63.4479	63.8706	63.7155	65.9348	68.2221	69.4992	70.0418	69.6265	68.3575	66.1465	62.0966	56.6691	53.0643	49.33	46.4947	42.3218	38.2993	33.631	29.8471	25.9921	22.2403	19.4943	16.7914	14.8841	12.7893	11.5786	9.541	7.6604	6.17	4.4034	3.6321	2.3922	1.337	0	0.044	0.0521	0	0	0	0	0	0
474	125.414	119.5135	120.8326	110.4258	104.2669	94.4821	85.726	78.4904	73.1434	66.0764	64.6677	62.6968	62.7704	62.8521	65.1012	67.3163	67.2742	67.9148	68.0234	67.537	64.9542	62.3455	56.9731	52.4634	49.243	46.5681	42.4025	37.9953	33.5337	29.655	26.991	22.4326	19.6852	17.2137	15.1713	13.0472	11.618	9.5941	8.1315	6.3533	4.8617	3.7822	3.0028	1.7822	0.3907	0.1339	0.1057	0	0	0	0	0	0
476	122.3877	117.2931	118.7108	110.6769	102.1072	94.8178	86.2681	77.0911	71.859	65.5535	62.0597	61.7457	62.0468	62.9351	64.1346	66.1869	67.0085	67.8071	66.9067	66.069	64.6705	60.7137	56.8911	53.3369	49.4916	46.418	42.1121	38.6117	33.8867	30	26.6904	22.9224	19.8556	17.5517	15.4465	13.2952	11.0832	10.4459	8.4451	6.9328	5.1091	4.2064	3.124	2.0992	1.0275	0.226	0.1607	0.0137	0	0	0	0	0
478	119.1353	114.8715	115.3215	108.8067	102.0869	90.4696	87.0175	78.2472	70.4073	65.5311	63.5034	63.1747	62.0074	61.9606	63.7159	64.8442	66.0419	66.7234	65.8905	65.5081	64.1649	59.8676	56.4282	52.058	48.4635	46.3209	41.924	37.9775	33.8975	29.8017	27.3747	23.3277	20.0058	17.8295	15.6894	13.5025	11.4074	10.4883	8.7056	7.4342	5.5539	4.3311	3.4086	2.4568	1.312	0.3201	0.1406	0.0278	0	0	0	0	0
480	115.7764	112.3621	112.7302	108.04	101.3939	90.9154	84.0951	76.3548	70.9397	65.8193	62.205	61.6611	61.0678	61.7201	62.7453	64.0283	65.6304	66.1387	66.1841	65.0696	62.3086	59.5661	55.5942	51.703	48.6809	46.1539	41.8875	38.064	34.1839	30.6633	27.3986	24.1868	20.2012	18.0785	15.9133	13.6912	11.7362	10.613	8.9918	7.2191	6.0945	4.5561	3.7806	3.0795	1.8449	0.7825	0.1201	0.0422	0	0	0	0	0
482	112.0742	109.5333	109.1027	103.3183	101.0509	92.9962	85.1371	76.1208	70.2341	66.6186	62.3228	61.7498	59.978	60.438	62.4182	62.542	63.4777	65.2724	63.8487	64.2698	61.5554	58.9054	54.8008	50.9672	48.6133	45.1121	41.695	38.1145	34.198	30.7341	27.552	24.122	21.4617	18.2905	16.1047	13.8326	12.0446	10.4341	9.5848	7.6419	6.2375	4.8248	3.9841	3.2221	2.1639	1.1382	0.0988	0.0875	0.0523	0	0	0	0
484	108.2872	106.6342	106.475	102.6977	97.0511	89.6368	83.9706	76.3366	69.2941	64.0093	60.9319	60.8751	59.1216	60.7019	60.6373	62.1032	63.1391	63.5899	63.3115	62.8197	59.8565	57.4287	54.2893	50.8932	48.0192	45.2806	40.8818	37.7495	33.8766	30.6153	27.5829	23.9697	21.6754	18.5032	16.2776	13.9742	12.3567	10.6016	9.8079	8.1733	6.5456	5.1163	4.1517	3.4851	2.3318	1.4758	0.6485	0.1648	0.1055	0	0	0	0
486	104.3951	103.6444	104.4656	99.8076	96.7768	92.2847	81.9374	75.3458	69.4784	63.5061	60.3884	59.377	58.3895	58.4453	59.2826	60.4438	61.3551	62.6005	62.4267	61.8775	59.3275	56.5294	53.1337	50.4809	47.9653	44.9617	41.1512	37.6561	34.0539	30.9879	27.49	24.6701	21.9619	18.713	16.4378	14.3018	12.5792	10.7684	9.8312	8.4216	6.8627	5.4884	4.1698	3.4425	2.954	1.8675	0.9242	0.2434	0.1598	0	0	0	0
488	100.4014	100.5666	102.3834	101.4201	93.287	92.0541	83.525	74.5199	69.5203	63.196	61.6656	58.0001	59.1248	58.7772	58.5284	60.4684	60.355	62.4008	61.8243	60.6514	58.5149	56.4202	53.3383	49.6447	46.5823	43.8684	41.2386	37.6959	34.1109	30.8266	27.3879	24.5447	21.9509	19.1245	16.595	14.6302	12.618	10.9343	9.8584	8.6427	7.1503	5.8496	4.452	3.9927	2.8307	2.1098	1.3609	0.3234	0.1075	0	0	0	0
490	96.3282	97.4227	100.2498	96.3437	94.5853	88.8908	81.6714	72.7206	67.4359	62.2516	59.251	58.3899	56.6241	56.5888	57.2881	59.2884	60.144	59.8183	60.3038	59.0499	57.109	54.9509	51.8559	49.4245	46.554	43.4545	41.0378	37.4474	33.3415	30.4588	27.8647	24.413	22.1927	19.545	16.7523	14.7779	12.6555	11.1014	9.5012	8.8914	7.5274	6.2894	4.6744	3.972	3.3193	2.5343	1.7105	0.7904	0.0542	0	0	0	0
492	92.2653	94.6681	98.1602	100.8351	95.9217	88.2772	81.058	72.8206	66.9393	62.4173	58.9913	57.7688	56.2419	56.2586	56.9611	57.8292	58.5944	58.7607	58.3754	58.2873	57.0216	54.1655	51.1282	48.2499	46.5867	43.0407	40.5104	37.0117	34.0775	30.693	27.2097	24.7078	22.316	19.4502	16.926	14.8471	12.8494	11.2805	9.7563	9.2941	7.4988	6.4279	5.067	4.1933	3.5551	2.7334	1.8951	1.1953	0	0.025	0.0292	0	0
494	88.1141	92.2134	96.0135	96.9991	94.3584	84.7674	80.5433	71.9974	66.0676	63.0815	58.4412	56.377	55.4001	54.5448	55.3062	57.1423	57.5919	58.551	57.3154	56.1914	55.8981	53.9164	50.633	48.2392	45.9957	43.2255	40.4706	36.7114	33.4227	30.477	27.2791	24.4939	22.3387	19.917	17.5098	14.9148	13.0447	11.4464	10.0145	9.1491	7.8768	6.7825	5.5289	3.9471	3.5794	3.0224	2.2036	1.4252	0.5423	0.0758	0.0589	0	0
496	83.8493	89.6699	90.9025	93.8617	92.3479	82.3241	78.3511	71.8695	67.4393	61.0386	58.0214	56.3476	54.4385	53.7373	53.7356	55.2954	56.9606	58.0463	56.1381	55.482	54.1479	52.9712	49.7445	46.9692	44.6554	42.579	40.3181	36.2252	33.2744	30.0291	27.2087	24.3506	22.3386	20.3342	17.4746	14.9766	13.23	11.6026	10.2728	8.9847	8.0018	6.8077	5.7661	4.51	3.5805	3.2404	2.49	1.8382	0.7515	0.1274	0.0892	0.0037	0
498	79.4763	83.0756	87.1066	90.6277	91.6716	82.0007	77.1697	70.9455	64.3542	60.4481	56.3045	54.4771	53.7171	53.2522	53.0204	53.3581	54.4929	55.2561	55.3848	53.5483	52.8175	51.5547	47.7182	46.9482	43.754	41.4301	39.4169	35.9162	32.5753	29.9509	27.2658	24.3673	22.2802	20.4288	17.8511	15.0325	13.3978	11.7563	10.5309	9.0386	8.6225	6.9372	5.9296	4.7525	3.6252	3.3185	2.8804	2.0687	1.1818	0.18	0.0687	0.0075	0
500	71.3772	78.7632	83.237	87.3274	87.1358	81.5592	75.8674	71.2698	63.3084	60.6845	55.6541	54.187	52.9864	51.1226	53.2408	52.7465	53.1323	53.6237	54.4457	52.9269	51.7101	50.3178	47.4657	44.8485	43.581	41.241	39.1681	35.2016	32.375	29.0932	27.2236	24.0471	22.645	20.1623	17.9676	15.7311	13.5665	12.028	10.6767	9.0922	8.5725	7.3774	6.1511	4.9318	4.0212	3.4394	3.0105	2.2665	1.4412	1.0081	0.0478	0.0113	0
502	74.5532	74.3497	79.3681	83.9358	87.6357	81.9913	76.1427	67.7997	62.4375	58.5997	54.9836	52.2056	52.0784	51.5383	51.5904	52.3523	52.2429	51.8959	52.4059	52.1971	51.2818	49.2295	46.6188	44.3623	42.9068	41.2192	38.5066	34.8512	32.1277	29.0312	26.6834	23.8543	22.1649	20.2373	17.5518	16.0256	13.7321	12.299	10.5875	9.1425	8.4734	7.3142	6.6147	5.2035	3.9192	3.3197	3.1652	2.4648	1.897	1.1	0.0265	0.0851	0.1783
504	72.2944	69.8612	75.5289	80.481	81.8061	78.1971	73.7007	66.4866	61.5029	58.2157	53.4942	53.1118	50.4	49.7306	49.861	50.0779	50.2669	51.1224	51.3606	50.1982	49.773	48.0541	45.0826	42.6822	41.7148	39.7086	37.1178	34.0167	31.1253	29.0182	26.6185	23.9048	21.9661	19.8657	18.0346	16.1155	13.8985	12.3384	10.4953	9.1925	7.8915	7.559	6.5235	5.5659	4.5142	3.4039	3.2225	2.5663	1.9414	1.549	0.5069	0.2306	0.3595
506	79.2243	65.3758	71.7079	77.3195	78.9746	80.0563	71.2517	65.2538	59.8605	56.1553	53.0099	50.6599	49.3446	46.5226	48.5453	50.0865	48.5808	49.5714	50.0298	49.2637	47.9767	46.3034	44.9914	42.3842	40.6679	39.1828	36.802	33.7165	31.1276	28.9864	25.9265	23.4323	22.0962	19.7683	17.9899	16.0523	14.0823	12.273	10.5677	9.2528	8.0256	7.6172	6.7021	5.8378	4.9486	3.5504	3.2163	2.7883	2.4534	1.6574	0.9483	0.379	0.5444
508	55.4515	60.8754	71.6923	73.8323	76.1693	76.8565	70.1008	64.8831	60.3616	54.4007	51.3649	49.6482	48.7685	46.3041	46.9323	47.1436	47.5484	48.1549	48.5045	48.2112	46.3556	46.0839	43.1036	41.5461	39.9405	38.6204	35.4729	33.7928	30.63	28.2571	25.9544	23.4379	21.4911	19.6156	18.2448	16.2605	13.8633	12.2184	10.6521	9.3017	8.1704	7.8862	6.8574	6.0175	5.0972	3.6946	3.1198	3.1456	2.555	1.8405	1.2184	0.5307	0.7335
510	54.854	64.5184	67.7327	70.2615	73.2921	71.7258	71.3952	63.9798	59.2549	53.8457	50.6186	47.71	47.0874	46.3691	45.4446	45.9559	46.4451	47.284	47.2391	46.6324	45.5648	44.0438	42.7122	40.3867	39.3065	37.2915	35.5741	32.6032	30.2381	27.4629	25.1578	23.1066	20.9717	19.5337	17.5683	16.3315	14.3707	12.1601	10.7248	9.3385	8.3164	7.4752	7.1047	6.0756	5.2223	3.9754	2.9297	3.0962	2.5926	2.2593	1.3883	0.9219	0.9264
512	54.2256	61.8297	63.6757	66.7878	70.3343	72.8623	67.5703	61.2794	57.9109	53.5413	50.7734	46.6923	45.4503	44.9252	45.0108	44.9839	45.0962	45.5757	46.0728	44.7324	44.7356	43.2888	40.6771	39.5952	37.7231	36.6247	34.5379	31.8618	29.2737	27.1207	24.9791	22.5195	21.1613	18.9617	17.5453	15.8997	13.7075	12.0963	10.7729	9.3729	8.4625	7.466	7.2529	6.3288	5.337	4.538	3.0773	2.6738	2.8712	2.5227	1.4928	1.1255	1.123
514	53.5734	61.9633	59.531	63.426	67.3061	66.7184	65.8035	60.3149	55.3628	51.762	47.9525	46.122	44.7055	43.3876	43.3667	43.4984	44.7922	43.8578	44.1824	44.2643	43.3548	41.7084	39.9576	38.8107	37.3658	36.1161	33.7979	31.6787	29.0339	26.5403	24.3893	22.3133	20.908	18.6412	17.5035	16.4011	14.4143	12.6897	10.8198	9.53	8.5173	7.455	7.0613	6.182	5.5467	4.6516	3.3664	2.4852	2.5997	2.5157	1.9995	1.2957	1.2927
516	52.9384	63.6026	55.3419	60.0358	63.5353	64.0539	64.8323	59.6359	52.8887	50.9928	48.0333	45.0922	43.9988	42.9909	42.4699	43.1708	43.0621	43.0593	42.2419	42.7368	41.5846	40.8731	38.6774	37.6843	36.2562	34.9648	33.0962	31.1165	28.1383	26.0377	24.5188	21.7976	20.0744	18.9189	16.8653	15.5262	14.1982	12.6877	10.8738	9.6959	8.3908	7.4481	6.8723	6.4526	5.6538	4.8153	3.7565	2.4881	2.6047	2.5495	2.1857	1.4297	1.4265
518	52.3179	48.5684	51.0977	59.109	60.5024	61.368	63.933	58.6776	54.3634	49.8073	46.7418	44.6874	44.8235	40.9965	41.4627	41.1537	41.387	41.2099	41.5811	41.0631	40.7096	40.0652	38.2382	36.5387	35.7257	34.1284	32.4248	29.8879	28.2052	26.016	23.4664	21.335	20.155	18.6842	16.9748	15.317	14.0652	12.5139	10.9348	9.6795	8.2659	7.4449	6.6787	6.5148	5.9976	5.1156	4.048	2.5083	2.1708	2.7659	2.3419	1.7103	1.7064
520	51.6699	31.4692	53.509	55.6744	57.3893	58.6085	59.1457	55.8932	52.0182	48.9493	44.8055	43.1675	41.7351	40.3024	40.0117	40.8325	40.2111	39.5847	41.4162	40.6849	39.1683	38.1994	36.2338	35.2325	34.474	33.0541	31.6871	29.3744	27.4479	25.5311	23.3006	20.9334	19.8283	18.3626	16.7029	15.5214	13.6976	12.6775	10.9943	9.5636	8.2698	7.4397	6.7034	6.2649	5.9589	5.0422	4.4166	2.5492	1.8349	2.58	2.3503	1.7869	1.7828
522	50.9913	32.6623	51.5073	52.1507	54.2228	55.7722	58.0591	55.3749	51.6274	47.1963	45.4337	42.3256	40.0516	40.2943	38.6897	39.2623	38.0831	38.4051	38.1312	38.8817	38.1728	37.2959	36.2195	34.6809	33.9043	33.5657	30.7025	29.1236	26.427	25.1051	22.6763	21.4145	19.4416	17.7556	16.6052	15.2687	13.891	11.9948	11.3104	9.4422	8.2711	7.3996	6.7266	6.173	5.9901	5.0755	4.4652	3.3099	1.3975	2.3785	2.374	1.9795	1.975
524	50.2855	33.8745	56.0619	48.5422	51.0081	52.8633	57.0474	51.9679	50.5247	47.0323	42.072	41.6225	39.0059	38.2892	37.8801	37.7953	37.4399	38.591	37.6273	37.7018	36.3717	35.5544	35.1714	33.5015	32.8557	32.1038	30.2133	27.9963	26.2337	23.8821	22.3268	19.8277	19.2902	17.4254	16.1032	15.1594	13.6158	12.5959	11.2731	9.3158	8.2541	7.3405	6.7486	6.2703	6.0068	5.2479	4.7579	3.8171	1.741	1.9806	2.5536	2.1339	2.129
526	49.5861	35.1296	50.6049	44.8799	47.7483	52.933	54.224	53.2571	49.1746	44.8004	43.0032	40.169	39.2605	37.8177	37.1682	37.3396	36.6021	36.9758	36.3761	36.2459	35.9908	35.5488	34.2216	32.5841	31.9371	30.9542	30.3242	28.2481	25.6625	23.864	22.4696	20.4611	18.431	17.0463	15.9395	14.4701	13.6544	12.299	10.989	9.1906	8.207	7.2832	6.774	6.2131	5.9041	5.3959	4.6598	3.8773	2.0498	1.2289	2.3994	2.0819	2.0771
528	48.8908	36.4294	49.4535	41.1556	49.0707	50.0751	51.3597	50.5527	48.2767	43.6134	42.1799	40.7908	38.2475	36.2451	35.9624	35.9554	35.9545	35.4375	36.0661	35.7704	35.2981	34.214	32.4332	32.5203	31.7254	30.3924	29.59	27.1729	25.3344	22.7238	21.4173	19.8212	18.9594	17.0164	15.7155	14.1637	13.1528	12.4369	10.8856	9.7048	8.1621	7.3184	6.7555	6.157	5.8306	5.318	4.5624	4.1373	2.4945	0.8558	2.1113	2.311	2.3057
530	48.1648	37.7508	39.5402	43.9179	45.8305	47.1377	48.4156	49.4674	45.6605	44.4644	41.1638	39.1999	36.6495	35.7644	34.1213	34.9225	33.7018	34.5462	35.0991	34.552	34.345	33.3645	32.1621	30.9599	30.5936	29.6072	27.5556	26.9761	24.3777	22.698	20.9345	18.9475	18.2907	16.9272	15.5771	14.1779	12.8912	11.9544	10.8399	9.4513	8.1138	7.3524	6.6387	6.0977	5.5909	5.4365	4.8341	4.1145	3.0159	0.955	1.5586	2.4386	2.4331
532	47.4153	39.0997	17.9155	42.5056	42.5116	44.0118	45.3987	47.9974	44.5574	41.3262	39.9309	37.6692	35.4991	34.0989	33.6963	33.5011	33.0543	33.3856	33.5125	33.1995	32.7402	31.7248	30.8572	30.3183	29.9731	28.7624	27.3327	25.5833	23.5683	22.1926	20.5401	18.6303	17.7403	16.3212	15.1446	14.0022	12.9271	12.0411	10.8675	9.5452	8.0633	7.2898	6.5182	6.0363	5.5373	5.0964	4.7224	4.4044	3.4653	1.1613	1.001	2.0156	2.011
534	46.6349	40.4704	22.4512	42.0146	39.107	40.6865	42.3015	45.7608	44.8198	40.9734	39.3462	36.8681	35.2379	33.8324	33.1049	32.5026	33.2624	32.7279	31.9878	33.0495	31.9324	31.6918	30.2913	29.8126	28.8639	27.7026	26.5166	25.0488	23.5148	21.8088	20.1106	18.3362	17.6664	16.0924	14.8639	13.6711	12.7718	11.7277	10.739	9.216	8.0093	7.1748	6.4607	5.9717	5.4455	5.3143	4.8813	4.3295	3.7709	2.0965	0.1208	1.7063	1.7024
536	45.8472	41.8847	27.1108	42.3556	35.6353	37.2963	41.2198	43.45	42.0544	39.8419	37.6606	35.3005	34.1791	32.1053	32.2482	31.9765	31.3649	31.6634	31.9635	31.6152	30.9528	30.3533	29.45	28.7483	28.0159	27.5673	26.1034	24.3944	22.5402	21.2692	19.5885	18.2873	16.6259	15.9366	14.4651	13.4218	12.5692	11.6154	10.3706	9.2348	8.2479	7.0588	6.4034	5.8536	5.3529	5.2878	4.9627	4.4127	3.4958	2.6584	0.0107	1.3511	1.3481
538	45.0502	32.3161	31.9019	42.2935	32.0908	37.4543	38.7603	41.0938	42.3445	39.8359	36.2093	34.8127	32.416	32.6834	31.0878	31.1378	31.3035	30.9495	31.3888	30.0698	30.3111	29.1596	28.2954	27.5081	26.8745	26.1326	25.4277	23.3325	22.1405	21.0371	19.3553	17.7883	16.5899	15.6474	14.3545	13.3419	12.3022	11.5334	10.4167	9.4887	8.0794	6.9415	6.3192	5.7066	5.2591	4.8536	4.7503	4.2088	3.6829	3.0155	0.5674	0.4256	0.4247
540	44.2195	37.6387	36.8136	36.0117	33.6795	34.7325	36.2302	38.6684	39.525	36.5731	35.2075	33.5596	31.6865	30.7856	29.6608	30.0158	30.0087	29.6407	30.2382	29.0219	28.7321	28.3899	27.647	27.0659	26.5971	25.7937	24.5296	22.9409	21.3178	20.0557	18.6577	17.2121	16.2718	14.9914	14.0336	12.587	12.2158	11.331	10.5301	9.4276	7.9298	6.8191	6.1768	5.5543	5.1613	4.7725	4.7196	4.635	3.7466	3.1788	1.177	0	0
542	43.4572	38.86	33.9973	29.7969	36.4418	32.0112	33.7096	36.2591	40.187	37.3885	34.5133	32.6668	31.8867	30.4445	28.5831	30.3959	28.2721	29.38	28.5928	29.2008	28.4228	27.671	27.3404	26.5742	25.6936	25.1952	24.3621	22.715	20.9134	19.7694	18.3958	16.8096	15.7971	14.4569	14.0541	12.4701	11.9834	10.9308	10.1289	9.1006	8.0171	6.6099	6.043	5.4716	5.0924	4.6989	4.6916	4.4685	3.6886	3.3073	2.2476	0	0
544	46.9607	32.2722	18.969	7.7265	32.5289	29.2008	31.1056	33.7672	38.4538	37.1253	33.1282	31.5258	31.4543	29.3298	28.3742	28.5962	27.7917	28.1773	27.8387	28.2617	27.5911	27.8588	26.457	25.0051	25.04	24.888	23.9119	22.3115	20.5378	19.5829	18.0606	16.6533	15.3534	14.5135	13.5426	12.5207	11.4693	10.8662	9.8519	9.1425	8.2509	7.0733	5.9028	5.3842	5.062	4.6212	4.3345	4.3277	3.9848	3.317	2.5702	0	0
546	55.0522	36.9955	20.7268	13.1494	33.3911	26.2871	28.4017	33.8444	36.031	33.6296	33.4999	31.8436	29.1936	28.8213	27.7321	27.4094	26.8198	27.1113	27.3278	26.1097	26.5326	26.7514	25.805	24.9085	24.3599	24.57	22.5852	21.5808	20.2086	19.322	17.6045	15.9915	15.2335	14.7085	13.1524	12.3173	11.4022	10.6376	10.1109	9.0522	7.8851	6.9565	5.7531	5.3321	5.0259	4.5369	4.074	4.5228	3.8786	3.2755	2.8525	0.803	0.8012
548	51.3247	36.4682	20.0772	18.7185	34.063	23.2759	30.3673	31.4026	33.5137	33.6056	31.891	30.6527	28.6918	27.9294	27.3381	27.0117	26.0245	26.8381	26.4069	25.9253	26.1268	25.1385	24.4035	24.3955	23.8922	23.6898	22.4591	20.9499	19.6235	18.2491	17.3856	15.9079	14.7932	13.8598	12.805	12.0829	11.2927	10.5441	9.319	8.4944	7.6245	7.2839	5.5941	5.2955	4.9426	4.4462	4.059	4.4373	3.91	3.3805	2.95	1.54	1.5365
550	51.3225	35.9155	22.8429	24.439	31.8273	27.4215	27.7674	28.8905	30.9237	32.5874	30.8298	28.401	28.2308	27.1177	26.2249	25.5451	25.7295	25.8108	25.3979	24.8481	24.7337	24.6323	23.7222	23.3627	23.2636	22.5969	21.4094	20.3604	19.0102	18.0236	16.305	15.2718	14.2015	13.3962	12.437	11.5204	11.0902	9.9434	9.239	8.6038	7.6601	7.0402	6.1032	5.2562	4.8556	4.3637	4.0423	4.0794	3.654	3.3275	2.9191	2.1369	2.132
552	57.119	35.4374	29.249	30.3978	31.3056	25.4391	25.1665	26.35	28.341	30.7313	30.4567	28.8141	26.3668	27.1357	25.4803	25.429	25.183	25.4181	25.0295	24.1858	24.2795	23.7356	22.9037	22.6294	22.0396	21.6579	20.8588	19.9935	18.137	17.3225	15.9815	14.8725	13.8935	13.3933	12.3224	11.7144	10.894	9.7307	8.8585	8.5278	7.5052	6.9764	6.0023	5.2288	4.7841	4.2958	4.0352	3.7948	3.8336	3.4437	3.0414	2.5621	2.5563
554	50.4868	34.928	29.7486	25.2937	21.444	26.0948	22.4771	23.689	25.6687	29.3798	28.9105	28.2285	26.9661	25.3493	24.3163	24.4592	23.5939	24.1026	24.0574	23.2772	23.4259	22.8446	22.7728	22.1483	21.1254	20.8877	20.3659	19.2968	17.6106	17.0339	15.3437	14.6871	13.5815	12.7611	11.975	11.2436	10.1748	9.6798	9.2139	8.1274	7.5061	6.7724	5.9239	5.1982	4.7205	4.2238	4.026	3.6617	3.702	3.2978	2.9885	2.8436	2.8372
556	56.7382	39.716	24.2171	11.125	0	27.5858	19.7066	20.9477	24.5724	27.7373	27.9118	27.9089	25.5402	25.174	23.5775	23.4134	23.6639	22.9251	22.3665	22.5459	23.0544	22.6382	21.6295	21.0719	20.9288	20.5649	19.4119	18.7948	17.529	16.1327	15.2848	13.9682	13.3981	12.2608	11.5849	10.8019	10.1328	9.3707	8.8635	7.9501	7.5053	6.6865	5.9433	5.4062	4.6546	4.2181	3.9938	3.5242	3.6404	3.5659	3.0949	2.6811	2.675
558	46.9909	48.2126	29.0765	12.9385	4.9029	28.4242	16.852	20.0897	22.9505	26.0424	27.1956	25.8922	25.3456	24.0151	23.3144	22.9796	22.4329	22.5643	22.2341	21.7502	21.2189	21.8266	21.669	20.2303	20.5693	20.3184	19.4306	18.1029	16.7288	15.5944	14.8411	13.6352	13.2174	12.2474	11.553	10.7957	9.9822	9.1139	8.7312	7.8085	7.3714	6.7287	6.0419	5.2995	4.5861	4.2118	3.9145	3.3821	3.1154	3.2646	3.0681	2.7712	2.7649
560	48.5118	46.8766	28.6092	12.3015	9.966	27.0729	16.2008	18.3924	21.269	24.2843	26.6227	24.9031	24.099	23.8098	22.7549	22.2199	21.8337	21.6999	22.3552	22.1189	20.9077	20.9671	20.6689	19.9168	19.8092	19.2637	19.006	17.5912	16.365	15.1433	14.5825	13.5438	12.409	11.5441	10.7743	10.0907	9.7242	9.0305	8.4663	7.8491	6.9731	6.7715	5.9478	5.463	4.5134	4.1578	3.8311	3.234	2.6088	3.477	3.0375	2.7087	2.7025
562	59.3338	44.5026	28.1135	14.8063	15.1895	27.8198	18.704	16.6358	19.4917	22.4621	26.0828	24.9113	24.0214	22.405	21.9306	20.9135	21.0566	20.3936	21.2066	20.2581	20.7627	19.9387	19.0019	19.4136	19.5986	18.7807	18.372	17.0941	16.1493	15.0309	13.7864	12.9664	12.4842	11.3202	11.014	9.9104	9.4109	8.7628	8.1131	7.6005	7.0137	6.4255	5.8024	5.21	4.4362	4.077	3.6868	3.0799	2.6267	3.2379	2.9155	2.7868	2.7805
564	44.5089	41.6707	27.5907	20.6042	20.575	20.4037	21.8329	14.821	17.6184	20.5772	24.3143	23.0793	22.0052	21.2389	21.4795	20.4994	20.5612	20.1868	20.0199	20.1942	19.7854	19.8376	18.8897	18.1128	18.1286	17.7856	16.96	16.3017	15.3442	14.9445	13.3048	12.4886	11.6901	11.1782	10.1972	9.7203	9.0968	8.6788	7.9397	7.2551	6.7669	6.2663	5.6622	5.2829	4.5735	3.9919	3.5367	3.0035	2.644	2.7797	2.9539	2.7619	2.7556
566	50.5169	40.8317	27.0573	22.4634	18.5026	14.9928	21.5199	12.9559	15.6936	20.5041	22.552	23.2212	20.806	20.4523	20.0561	19.0406	19.8066	19.0729	19.7649	19.2369	19.0168	18.5466	18.4965	17.5278	17.6324	17.2694	17.1443	16.0698	14.9582	14.2651	13.1147	12.1144	11.6085	10.6452	10.1669	9.5025	9.0423	8.0259	7.5712	7.025	6.8874	5.7675	5.6406	5.2385	4.5011	3.9051	3.4249	2.9679	2.6623	2.4327	2.9316	2.8395	2.833
568	38.8889	44.2223	37.5182	22.9727	10.5956	0	22.0195	11.0368	17.2417	18.0004	20.7403	21.3807	20.8559	20.2857	19.5399	18.9837	19.1538	18.5963	18.8157	18.3994	17.8069	18.0258	17.1178	17.6669	17.2049	16.6893	16.1249	15.3321	14.727	13.631	12.582	11.7464	11.5619	10.2801	9.8926	9.4471	8.7817	8.0185	7.4719	6.8655	6.3424	5.8743	5.3753	5.0954	4.5714	3.8161	3.3961	2.9316	2.6816	2.3743	2.9695	2.5117	2.506
570	36.3834	40.0031	36.7789	22.7748	10.854	4.6596	21.2726	14.1972	14.7122	15.4136	18.8641	21.4215	19.7601	19.9083	18.6912	19.0058	17.6921	18.6824	17.3415	18.0958	17.9982	17.6327	17.705	16.6754	15.9385	16.4164	15.4854	14.6875	13.8642	12.9235	12.4588	11.3812	10.8632	10.2372	9.3845	9.0697	8.1059	7.6877	7.2833	6.4423	6.1396	5.8606	5.3207	4.8143	4.4964	3.8684	3.3648	2.9539	2.686	2.3131	2.7192	2.6031	2.5971
572	39.4716	42.1937	36.0566	23.9411	11.7521	9.4895	21.485	15.4197	12.1277	13.1598	16.9599	21.116	19.3273	18.6163	17.9391	18.1478	17.1183	17.8056	17.4776	17.5201	17.1252	17.216	16.8825	15.9973	16.1875	15.9821	15.1234	14.8609	13.3086	12.6521	11.8446	10.5916	10.681	10.0083	9.7079	8.7155	7.9621	7.568	7.4184	6.5186	6.1507	5.5165	5.2911	5.0234	4.5437	3.8551	3.3382	2.9819	2.6663	2.2537	2.2261	2.5063	2.5006
574	41.5958	41.9728	42.6322	25.1342	14.9351	14.4908	23.2237	16.0786	9.4504	11.2182	14.9821	18.726	18.2785	18.3489	18.1085	17.0158	17.1555	16.7367	16.3891	16.861	16.3272	16.0098	16.1418	15.0624	15.293	15.1945	14.9066	13.743	13.0396	12.1572	11.4477	10.5383	10.046	9.5512	9.1298	8.693	8.0572	7.2836	6.9866	6.5826	5.9322	5.5213	5.1661	4.9379	4.4808	3.8981	3.3086	2.9798	2.6444	2.1909	1.729	2.4715	2.4659
576	47.1596	45.2274	38.7712	26.3537	20.5253	19.6642	19.2398	18.4628	6.6806	9.2063	15.4226	17.4678	17.3086	17.0209	17.5457	16.3267	16.2682	16.3851	15.9258	16.4944	16.4479	15.7328	15.5031	14.8176	15.1431	15.0105	14.0182	13.6753	12.5613	12.2372	11.2535	10.5498	9.9588	9.4897	8.5276	8.2086	7.6803	6.9962	6.5302	6.2239	5.5765	5.511	5.1616	4.8288	4.3758	3.9037	3.2762	2.9609	2.5861	2.1248	1.7048	2.5104	2.5047
578	48.3751	41.7076	38.6799	27.5995	21.2395	15.6693	11.0811	16.7319	3.8188	12.3138	13.701	16.1589	17.1474	16.9252	16.4698	15.5782	16.2387	16.4459	15.9134	15.6745	15.5084	15.14	14.451	14.5831	14.6826	14.8354	13.3839	13.1727	11.8764	11.2507	10.948	10.356	9.5883	8.8364	8.3783	8.1485	7.7036	7.27	6.607	6.2215	5.695	5.2323	5.1213	4.662	4.1972	4.0582	3.561	2.9399	2.5245	2.0772	1.6788	2.2108	2.2058
580	40.2892	38.4224	40.5752	33.3462	20.5046	9.4462	0	18.5835	9.5519	10.595	11.9174	14.7996	16.3529	15.9589	16.4197	16.0361	15.2155	14.9217	15.1428	15.315	14.9054	14.7243	14.1527	13.8542	13.4374	13.7818	13.3899	12.8815	12.0619	11.1984	10.4264	9.697	9.535	8.6937	8.4275	7.5867	7.1886	7.0085	6.3998	6.0973	5.7135	5.082	4.7163	4.4487	3.9957	3.7371	3.3698	2.9165	2.4705	2.038	1.6512	1.7647	1.7607
582	43.5559	34.02	35.9818	34.8655	21.3786	9.7686	4.0368	18.1772	9.636	8.8196	10.3076	13.3938	16.4243	14.9778	14.6728	15.2148	15.0776	15.467	14.2333	14.835	14.0897	14.3637	14.091	13.1606	13.6095	13.5222	13.1512	12.3734	11.4388	11.0734	10.0431	9.1687	8.8163	8.3614	8.1926	7.4794	6.9451	6.5827	6.0765	5.9725	5.359	4.9276	4.664	4.5505	3.8391	3.9067	3.3037	2.8918	2.4368	1.9971	1.6222	1.2489	1.2461
584	44.7963	32.4286	35.4918	31.6388	21.5438	9.7629	8.209	17.7733	12.5288	6.984	8.878	11.937	15.0838	15.07	14.2416	14.5166	14.7893	14.2069	14.0499	14.5394	13.8112	13.91	13.2035	13.5593	13.2286	12.7776	12.8485	11.8808	10.9514	10.3342	10.0004	9.1861	8.7529	8.5221	8.2157	7.1732	6.4053	6.3614	6.0585	5.8292	5.2904	4.8345	4.5533	4.2837	3.8599	3.8663	3.4045	2.8758	2.4008	1.9724	1.5915	1.1066	0.5979
586	42.4796	36.0095	36.2706	29.8605	21.7	12.0455	12.5155	20.7325	12.045	5.0876	7.3985	12.1623	13.8858	14.1258	14.7711	14.2436	14.2417	13.6637	13.6919	13.3996	12.9045	12.7106	12.6198	12.6687	12.7413	12.1977	12.3315	11.6777	10.5399	10.1423	9.5029	8.4932	8.5253	8.1031	7.5238	6.8185	6.8814	6.3265	6.0394	5.4978	5.0768	4.6895	4.4891	4.2558	3.8404	3.5467	3.2956	2.8276	2.362	1.9455	1.5689	0.959	0
588	39.3713	40.576	34.2043	31.9652	21.8474	16.7272	16.9548	17.6544	11.9199	3.1315	9.1206	10.4308	12.643	13.969	13.9017	13.0595	13.1445	13.1317	13.1435	12.7473	12.8408	12.6438	12.794	12.3947	12.674	11.7662	11.7585	11.2695	11.1067	9.7071	9.543	8.7942	8.1224	7.7039	7.3329	7.0309	6.7392	6.1963	5.9166	5.2237	4.8073	4.6934	4.274	4.1046	3.7698	3.4916	3.3138	2.5662	2.3206	1.9217	1.5497	0.8063	0
590	46.9095	33.7055	34.5019	29.7712	21.9895	17.0201	12.9761	9.6344	14.1667	6.2634	7.4017	8.6441	11.3579	12.703	12.5902	12.3772	12.696	12.7589	12.6038	12.4554	12.1797	12.5113	12.0203	11.8007	11.811	11.88	11.7633	10.7184	9.8097	9.3478	8.8527	8.2061	7.9029	7.2887	6.8499	6.6689	6.3382	5.9793	5.8662	5.0236	4.9338	4.3893	4.1609	3.8433	3.8143	3.4538	3.3592	2.8611	2.2769	1.9067	1.4661	0.6487	0
592	47.3076	29.846	36.8145	29.2211	24.8351	15.2599	7.193	0	11.5797	7.9916	5.6504	7.0851	10.0668	12.9383	13.0275	12.3481	12.5933	12.041	11.9559	12.4284	11.6884	12.0714	11.6879	11.2186	11.4974	11.2728	10.7832	10.5864	9.907	9.1046	9.2254	7.7854	7.7927	7.3807	7.0679	6.3425	6.0567	5.7138	5.0253	4.8461	4.5659	4.5935	4.0484	3.9394	3.5589	3.208	3.0531	2.7607	2.4074	1.8972	1.3203	0.6108	0
594	45.233	33.9382	34.4709	32.9779	27.5752	16.8367	7.9594	4.0445	15.5872	7.7777	3.8329	5.7285	8.7228	11.9677	11.9344	12.2082	12.5764	12.2532	12.4569	11.5693	11.6497	11.5971	10.9813	11.3269	11.2716	10.8203	10.3867	10.6139	9.4396	8.6554	8.422	8.1306	7.3795	7.1468	6.4195	6.3124	6.1922	5.4125	5.0042	5.1482	4.4978	4.1146	4.0249	3.6525	3.4442	3.191	2.969	2.7498	2.501	1.8862	1.2541	0	0
596	40.2327	43.493	30.5561	33.0351	27.7342	17.1951	10.8671	8.2426	15.3337	10.0235	1.9502	4.3223	8.2036	10.9179	11.5296	11.7417	11.2953	12.2106	12.0504	10.9372	11.5576	12.094	10.5657	11.1599	10.1025	10.5853	10.254	9.8251	9.4102	8.835	8.3299	7.8189	7.5234	7.0082	6.3331	5.9826	5.5331	5.6163	4.8107	5.0744	4.3838	4.0853	3.8011	3.8268	3.4535	3.3188	3.241	2.5989	2.3909	1.8744	1.2652	0	0
598	43.4074	43.028	32.0933	31.7002	28.5035	18.9035	15.3877	12.6005	14.7655	7.0458	0	4.2641	7.0728	9.8277	11.5313	11.3039	10.8576	11.1616	11.8867	11.1498	10.7955	11.0903	10.6769	10.5422	10.0957	9.9961	9.988	9.3166	9.1172	8.1379	8.1444	7.0527	7.1385	6.6366	6.0562	5.8889	5.1567	5.3611	4.7625	4.4816	4.4109	4.0651	3.7297	3.5429	3.4887	3.1059	2.8494	2.6999	2.1636	1.9933	0	0	0
600	52.7413	41.7193	34.9935	28.0007	28.7922	23.9183	20.0721	17.1173	14.8649	8.0352	0.3854	3.073	5.8969	8.6922	11.5087	11.212	10.4389	11.2461	10.4993	11.2071	10.4995	10.3525	10.3859	10.2131	10.1116	9.6109	10.1833	9.1628	8.6747	7.8803	7.2384	7.3449	6.8976	6.6738	6.2367	5.7321	5.0578	4.801	4.864	4.544	4.0946	3.9514	3.4664	3.462	3.3158	3.0021	2.998	2.3641	2.2518	1.9677	0	0	0
