Description	E1-25.5 (clean blank)																																																				
EEM type	"Dilution- & Scatter-corrected, Calibrated Data (ppb QSE)"																																																				
Scan date	1/19/2012 13:27																																																				
Excitation	240-500nm by 5nm																																																				
Emission	290-600nm by 2nm																																																				
Calibration	Michael_Fluoromax4_April08 (07-Apr-2008)																																																				
Slit settings	"5nm Excitation, 5nm Emission"																																																				
Dilution	4																																																				
Row 1	Excitation(nm)																																																				
Col 1	Emission(nm)																																																				
Data	Fluorescence(ppb QSE)																																																				
																																																					
	240	245	250	255	260	265	270	275	280	285	290	295	300	305	310	315	320	325	330	335	340	345	350	355	360	365	370	375	380	385	390	395	400	405	410	415	420	425	430	435	440	445	450	455	460	465	470	475	480	485	490	495	500
290	0	0	0	0	0	0	0	0	0	0	0	0	0	0	0	0	0	0	0	0	0	0	0	0	0	0	0	0	0	0	0	0	0	0	0	0	0	0	0	0	0	0	0	0	0	0	0	0	0	0	0	0	0
292	0	0	0	0	0	0	0	0.3733	0	0	0	0	0	0	0	0	0	0	0	0	0	0	0	0	0	0	0	0	0	0	0	0	0	0	0	0	0	0	0	0	0	0	0	0	0	0	0	0	0	0	0	0	0
294	0	0	0	0	0	0	0	0.7384	0	0	0	0	0	0	0	0	0	0	0	0	0	0	0	0	0	0	0	0	0	0	0	0	0	0	0	0	0	0	0	0	0	0	0	0	0	0	0	0	0	0	0	0	0
296	0	0	0	0	0	0	1.1225	1.094	0	0	0	0	0	0	0	0	0	0	0	0	0	0	0	0	0	0	0	0	0	0	0	0	0	0	0	0	0	0	0	0	0	0	0	0	0	0	0	0	0	0	0	0	0
298	0	0	0	0	0	0	2.2146	1.4386	0.6382	0	0	0	0	0	0	0	0	0	0	0	0	0	0	0	0	0	0	0	0	0	0	0	0	0	0	0	0	0	0	0	0	0	0	0	0	0	0	0	0	0	0	0	0
300	0	0	0	0	0	1.1556	2.9119	1.7731	1.2586	0	0	0	0	0	0	0	0	0	0	0	0	0	0	0	0	0	0	0	0	0	0	0	0	0	0	0	0	0	0	0	0	0	0	0	0	0	0	0	0	0	0	0	0
302	0	0	0	0	0	2.3157	3.2815	2.934	1.8913	0	0	0	0	0	0	0	0	0	0	0	0	0	0	0	0	0	0	0	0	0	0	0	0	0	0	0	0	0	0	0	0	0	0	0	0	0	0	0	0	0	0	0	0
304	0.6131	0	0	0	0	3.4804	3.6524	4.0995	2.5262	0.822	0	0	0	0	0	0	0	0	0	0	0	0	0	0	0	0	0	0	0	0	0	0	0	0	0	0	0	0	0	0	0	0	0	0	0	0	0	0	0	0	0	0	0
306	0	0	0	0	1.2189	4.6474	4.8493	4.9983	3.1619	1.6463	0	0	0	0	0	0	0	0	0	0	0	0	0	0	0	0	0	0	0	0	0	0	0	0	0	0	0	0	0	0	0	0	0	0	0	0	0	0	0	0	0	0	0
308	1.9158	0	0	0	1.1828	5.815	6.0468	5.6276	4.3132	2.4716	0	0	0	0	0	0	0	0	0	0	0	0	0	0	0	0	0	0	0	0	0	0	0	0	0	0	0	0	0	0	0	0	0	0	0	0	0	0	0	0	0	0	0
310	0	0	0	0	2.6447	6.1117	7.2467	6.2579	5.4667	3.2982	1.0233	0	0	0	0	0	0	0	0	0	0	0	0	0	0	0	0	0	0	0	0	0	0	0	0	0	0	0	0	0	0	0	0	0	0	0	0	0	0	0	0	0	0
312	0.5143	0	0	0	3.1625	7.5654	8.3979	7.3555	6.4111	4.1015	2.0362	0	0	0	0	0	0	0	0	0	0	0	0	0	0	0	0	0	0	0	0	0	0	0	0	0	0	0	0	0	0	0	0	0	0	0	0	0	0	0	0	0	0
314	2.0718	0	0	0	3.4028	7.9035	9.537	8.4416	7.1749	5.3591	3.0387	0	0	0	0	0	0	0	0	0	0	0	0	0	0	0	0	0	0	0	0	0	0	0	0	0	0	0	0	0	0	0	0	0	0	0	0	0	0	0	0	0	0
316	0	0.7112	0.2942	1.8153	4.6851	7.7926	10.5055	9.4845	7.904	6.5817	4.0173	1.0223	0	0	0	0	0	0	0	0	0	0	0	0	0	0	0	0	0	0	0	0	0	0	0	0	0	0	0	0	0	0	0	0	0	0	0	0	0	0	0	0	0
318	4.1129	0	1.3554	2.2224	5.4626	9.0903	10.976	10.473	9.034	7.6053	4.962	2.0203	0	0	0	0	0	0	0	0	0	0	0	0	0	0	0	0	0	0	0	0	0	0	0	0	0	0	0	0	0	0	0	0	0	0	0	0	0	0	0	0	0
320	5.5621	1.208	2.641	3.356	6.7051	10.3821	11.6267	11.4349	10.1345	8.4528	5.805	2.9941	0	0	0	0	0	0	0	0	0	0	0	0	0	0	0	0	0	0	0	0	0	0	0	0	0	0	0	0	0	0	0	0	0	0	0	0	0	0	0	0	0
322	8.4455	1.8267	1.3586	6.0677	8.1744	10.1503	13.059	13.1214	11.1534	9.2342	6.5951	3.9252	1.0343	0	0	0	0	0	0	0	0	0	0	0	0	0	0	0	0	0	0	0	0	0	0	0	0	0	0	0	0	0	0	0	0	0	0	0	0	0	0	0	0
324	7.4597	4.7102	4.9195	6.1922	8.2812	11.2098	12.7015	12.8209	12.1317	9.9118	7.3797	4.8228	2.0334	0	0	0	0	0	0	0	0	0	0	0	0	0	0	0	0	0	0	0	0	0	0	0	0	0	0	0	0	0	0	0	0	0	0	0	0	0	0	0	0
326	11.4918	4.2221	5.4701	7.1951	9.9977	12.2394	13.0878	14.8959	13.0632	10.5553	8.1541	5.764	2.9958	0	0	0	0	0	0	0	0	0	0	0	0	0	0	0	0	0	0	0	0	0	0	0	0	0	0	0	0	0	0	0	0	0	0	0	0	0	0	0	0
328	12.6232	6.1966	6.2244	6.972	10.0051	11.6128	13.4298	15.0609	14.327	11.1636	8.8913	6.6649	3.9203	1.0022	0	0	0	0	0	0	0	0	0	0	0	0	0	0	0	0	0	0	0	0	0	0	0	0	0	0	0	0	0	0	0	0	0	0	0	0	0	0	0
330	12.292	8.0407	7.2401	8.5904	10.4852	12.4079	13.5708	15.1848	14.8619	11.7411	9.6681	7.5018	4.8075	1.9664	0	0	0	0	0	0	0	0	0	0	0	0	0	0	0	0	0	0	0	0	0	0	0	0	0	0	0	0	0	0	0	0	0	0	0	0	0	0	0
332	16.0087	10.4646	8.2558	8.9087	10.4349	13.5533	13.4853	15.1491	15.6259	12.1558	10.2964	8.1874	5.5204	2.8616	0.3179	0	0	0	0	0	0	0	0	0	0	0	0	0	0	0	0	0	0	0	0	0	0	0	0	0	0	0	0	0	0	0	0	0	0	0	0	0	0
334	15.3967	8.8681	9.047	9.0958	11.3119	13.721	13.9084	15.2962	14.6523	14.0037	10.8678	8.8166	6.1803	3.6981	1.2019	0	0	0	0	0	0	0	0	0	0	0	0	0	0	0	0	0	0	0	0	0	0	0	0	0	0	0	0	0	0	0	0	0	0	0	0	0	0
336	15.7769	11.6159	10.8055	11.0187	11.6494	14.4777	15.2711	15.4459	15.4719	14.4509	11.3938	9.3289	6.8378	4.4803	2.0311	0.0669	0	0	0	0	0	0	0	0	0	0	0	0	0	0	0	0	0	0	0	0	0	0	0	0	0	0	0	0	0	0	0	0	0	0	0	0	0
338	16.1618	10.8909	10.7404	9.5733	11.7288	13.3424	14.461	14.4585	15.7681	14.5681	11.8771	9.8013	7.4914	5.1648	2.8082	0.4557	0	0	0	0	0	0	0	0	0	0	0	0	0	0	0	0	0	0	0	0	0	0	0	0	0	0	0	0	0	0	0	0	0	0	0	0	0
340	19.2914	12.8681	11.0681	11.5723	11.9996	13.6445	14.7611	15.0402	15.8243	14.7548	12.4845	10.2249	8.0898	5.7968	3.5319	1.4864	0	0	0	0	0	0	0	0	0	0	0	0	0	0	0	0	0	0	0	0	0	0	0	0	0	0	0	0	0	0	0	0	0	0	0	0	0
342	22.7363	12.4317	11.8008	12.4502	12.4168	13.9933	15.9087	15.08	15.9073	14.0242	12.8802	10.6578	8.6369	6.4178	4.225	2.462	0.4706	0	0	0	0	0	0	0	0	0	0	0	0	0	0	0	0	0	0	0	0	0	0	0	0	0	0	0	0	0	0	0	0	0	0	0	0
344	20.1534	15.8389	11.1769	13.0767	13.3927	14.5805	15.1347	16.0589	15.2894	15.2695	13.4155	11.0497	9.14	7.0006	5.1103	3.38	1.5977	0	0	0	0	0	0	0	0	0	0	0	0	0	0	0	0	0	0	0	0	0	0	0	0	0	0	0	0	0	0	0	0	0	0	0	0
346	20.1745	15.0012	14.6136	13.9055	14.1262	14.0155	14.9341	15.3974	16.0366	15.2866	13.7411	11.292	9.6243	7.5584	5.9524	4.2515	2.4254	0.5374	0	0	0	0	0	0	0	0	0	0	0	0	0	0	0	0	0	0	0	0	0	0	0	0	0	0	0	0	0	0	0	0	0	0	0
348	24.7767	16.6193	14.3783	14.185	13.6338	14.6933	16.2435	15.8002	15.2	15.0997	14.6462	12.3458	10.0955	8.3215	6.749	5.0839	3.214	1.5177	0	0	0	0	0	0	0	0	0	0	0	0	0	0	0	0	0	0	0	0	0	0	0	0	0	0	0	0	0	0	0	0	0	0	0
350	27.6515	18.3909	16.8116	13.5788	14.8776	15.2387	15.2739	15.4652	15.8429	15.1963	14.5398	12.9145	10.5303	9.036	7.4875	5.7814	3.9594	2.0925	0.7826	0	0	0	0	0	0	0	0	0	0	0	0	0	0	0	0	0	0	0	0	0	0	0	0	0	0	0	0	0	0	0	0	0	0
352	25.5829	19.8227	16.8042	14.9153	15.3006	15.2654	14.9056	16.5546	16.2122	16.1199	15.6211	13.8353	11.4683	9.704	8.18	6.4369	4.6625	2.8889	1.4471	0	0	0	0	0	0	0	0	0	0	0	0	0	0	0	0	0	0	0	0	0	0	0	0	0	0	0	0	0	0	0	0	0	0
354	26.4027	21.1212	18.3131	15.9615	15.8462	15.8776	16.232	16.6806	16.6663	16.3445	15.7682	13.8899	12.5598	10.3236	8.7428	7.0493	5.5191	3.9642	2.2801	0.7802	0	0	0	0	0	0	0	0	0	0	0	0	0	0	0	0	0	0	0	0	0	0	0	0	0	0	0	0	0	0	0	0	0
356	28.1957	19.6709	18.7088	17.036	16.6587	16.9584	17.065	16.6754	17.0268	16.6809	15.5407	14.7596	13.2467	10.9325	9.4856	8.0286	6.5419	4.9937	3.2673	1.4665	0.3045	0	0	0	0	0	0	0	0	0	0	0	0	0	0	0	0	0	0	0	0	0	0	0	0	0	0	0	0	0	0	0	0
358	27.6198	24.0334	18.8013	17.2537	16.9083	17.3743	17.246	17.2451	17.2043	16.8962	16.1353	15.5849	14.1823	12.1385	10.4043	8.9828	7.5469	5.989	4.3576	2.302	1.1089	0	0	0	0	0	0	0	0	0	0	0	0	0	0	0	0	0	0	0	0	0	0	0	0	0	0	0	0	0	0	0	0
360	31.2194	24.0002	20.9902	18.5866	18.5713	17.1455	17.3817	17.7808	18.0499	18.1767	16.813	15.9489	15.0399	13.2791	11.2744	9.9005	8.5024	6.9367	5.293	3.3899	1.6641	0.203	0	0	0	0	0	0	0	0	0	0	0	0	0	0	0	0	0	0	0	0	0	0	0	0	0	0	0	0	0	0	0
362	31.021	26.4263	22.0733	20.2749	18.5457	19.1907	18.3476	18.066	17.7155	17.9254	17.589	16.8067	15.477	14.3656	12.1814	10.8511	9.4326	7.9329	6.2266	4.065	2.3441	0.8351	0	0	0	0	0	0	0	0	0	0	0	0	0	0	0	0	0	0	0	0	0	0	0	0	0	0	0	0	0	0	0
364	36.4165	26.4727	24.2892	20.0262	20.0657	19.2271	19.4294	18.6286	18.8782	18.8452	18.2002	17.3733	16.828	15.1533	13.4436	11.7675	10.33	8.9755	7.1287	5.1289	3.1338	1.5902	0	0	0	0	0	0	0	0	0	0	0	0	0	0	0	0	0	0	0	0	0	0	0	0	0	0	0	0	0	0	0
366	37.343	28.0028	26.332	22.4252	19.897	19.9196	20.1391	19.9425	18.958	19.3142	19.3134	18.5344	17.8801	16.4183	14.3737	12.6602	11.283	9.9898	8.006	6.0388	3.8298	2.3014	0.9387	0	0	0	0	0	0	0	0	0	0	0	0	0	0	0	0	0	0	0	0	0	0	0	0	0	0	0	0	0	0
368	35.6901	30.6463	27.7101	25.3114	22.197	20.0417	21.4177	20.4402	20.4246	20.1571	19.7582	19.5247	18.9163	17.3765	15.8125	13.5318	12.2518	10.821	8.8641	6.9246	4.9214	2.9404	1.4811	0	0	0	0	0	0	0	0	0	0	0	0	0	0	0	0	0	0	0	0	0	0	0	0	0	0	0	0	0	0
370	37.4301	32.4558	28.4953	25.862	23.3853	22.1378	21.0776	20.9245	20.8377	20.7415	20.948	20.007	19.5439	18.7785	17.5117	14.7638	13.1876	11.6237	9.6999	7.782	5.8593	3.781	2.0944	0.3957	0	0	0	0	0	0	0	0	0	0	0	0	0	0	0	0	0	0	0	0	0	0	0	0	0	0	0	0	0
372	45.0036	33.1611	31.8274	26.2118	25.5615	23.5256	21.6677	21.8153	21.8668	21.9168	21.4085	21.5375	20.9526	19.9886	17.7866	16.235	14.1631	12.4679	10.5612	8.9358	6.9495	4.7496	2.771	1.165	0	0	0	0	0	0	0	0	0	0	0	0	0	0	0	0	0	0	0	0	0	0	0	0	0	0	0	0	0
374	45.8085	37.5559	32.3775	28.4739	27.176	25.7076	23.8064	23.4249	22.9512	22.8002	22.9062	22.4212	22.5373	21.5125	19.5872	17.9938	15.1169	13.5775	11.9632	10.3435	8.0173	5.5627	3.3276	1.7564	0.0275	0	0	0	0	0	0	0	0	0	0	0	0	0	0	0	0	0	0	0	0	0	0	0	0	0	0	0	0
376	46.3791	39.8861	35.4516	31.1828	28.3873	25.347	24.3384	24.2592	23.8201	23.8896	23.7272	24.0648	23.1417	22.5475	21.2604	19.2335	16.6641	14.9286	13.3243	11.4388	9.0549	6.5901	4.175	2.3912	0.7618	0	0	0	0	0	0	0	0	0	0	0	0	0	0	0	0	0	0	0	0	0	0	0	0	0	0	0	0
378	49.1662	42.3314	36.9429	32.5619	30.6483	27.0477	26.1693	24.7907	24.9013	24.944	25.2437	25.5721	24.9301	24.4688	22.3907	20.804	18.2476	16.233	14.6405	12.4969	10.0593	7.6216	5.1631	2.9879	1.4842	0	0	0	0	0	0	0	0	0	0	0	0	0	0	0	0	0	0	0	0	0	0	0	0	0	0	0	0
380	54.3729	46.5636	38.5947	33.7472	32.3221	28.4036	27.2965	26.0258	26.2804	26.3444	26.4855	26.944	25.9948	25.756	24.1373	22.0299	20.1762	17.5026	15.653	13.493	11.0372	8.6267	6.0877	3.7488	2.2504	0.5391	0	0	0	0	0	0	0	0	0	0	0	0	0	0	0	0	0	0	0	0	0	0	0	0	0	0	0
382	51.9795	48.2079	42.1634	36.6242	32.7832	30.5082	28.8096	27.4854	26.9669	27.6481	28.1242	28.0907	27.7838	26.948	25.475	23.8532	21.6029	18.8229	16.7129	14.4942	12.1398	9.6494	7.0507	4.7557	2.6682	1.4205	0	0	0	0	0	0	0	0	0	0	0	0	0	0	0	0	0	0	0	0	0	0	0	0	0	0	0
384	57.4635	49.8311	42.4015	39.5148	35.1447	30.8524	29.7725	28.9492	27.9625	28.3247	28.9391	28.9524	28.9719	28.6921	26.7505	24.7828	22.7558	19.9036	17.755	15.4787	13.2245	10.6556	8.0065	5.6369	3.5844	2.0568	0.1365	0	0	0	0	0	0	0	0	0	0	0	0	0	0	0	0	0	0	0	0	0	0	0	0	0	0
386	61.9116	51.7757	44.289	38.7344	36.3222	34.1099	30.3382	29.5709	29.6232	29.0952	29.6283	30.6101	30.3366	29.5074	28.7629	26.7532	24.1377	21.5033	18.8496	16.6045	14.3058	11.6889	8.9803	6.5089	4.3848	2.5596	1.0132	0	0	0	0	0	0	0	0	0	0	0	0	0	0	0	0	0	0	0	0	0	0	0	0	0	0
388	61.9147	56.7115	46.1947	42.3346	37.952	34.1797	32.3365	30.9899	30.3255	30.4732	31.135	32.0779	31.7399	31.0684	29.9522	27.864	25.3059	23.429	20.0097	17.7874	15.3969	12.7205	9.9833	7.4342	5.2508	3.3717	1.6079	0	0	0	0	0	0	0	0	0	0	0	0	0	0	0	0	0	0	0	0	0	0	0	0	0	0
390	67.0867	58.4169	48.7536	44.4554	39.7098	36.8234	33.5632	31.2246	31.3117	31.0871	32.2034	33.2134	33.5154	32.2826	31.5413	29.8343	26.9907	24.5854	21.2937	18.9699	16.4876	13.7518	10.9859	8.4049	6.3059	4.0243	2.3959	0.7331	0	0	0	0	0	0	0	0	0	0	0	0	0	0	0	0	0	0	0	0	0	0	0	0	0
392	70.4873	60.3516	53.7105	45.4796	41.5022	38.357	34.8669	33.1678	32.2122	32.0796	33.2117	34.5326	34.5591	34.0959	32.5893	31.1583	28.5916	26.0149	23.0043	20.0313	17.4314	14.6942	11.9761	9.4509	7.1476	4.7124	2.8074	1.3107	0	0.021	0.0247	0	0	0	0	0	0	0	0	0	0	0	0	0	0	0	0	0	0	0	0	0	0
394	70.3197	62.8781	55.3725	48.6	43.0036	39.6356	36.1818	33.3901	33.2862	34.069	34.4769	35.0071	35.5462	35.5048	34.7085	32.7866	29.8119	27.7227	24.6362	21.078	18.4241	15.7456	13.0448	10.4833	8.1059	5.7754	3.6888	2.0899	0.4858	0.0625	0.049	0	0	0	0	0	0	0	0	0	0	0	0	0	0	0	0	0	0	0	0	0	0
396	73.7487	66.73	58.0035	50.933	45.0531	40.5945	37.1766	35.3985	34.1257	34.7672	35.0945	36.5964	37.2065	37.0196	35.7127	33.6328	31.7939	28.4809	26.425	22.8343	19.4951	16.8089	14.1858	11.5198	8.9861	6.8294	4.5004	2.7742	1.1554	0.1037	0.0731	0	0	0	0	0	0	0	0	0	0	0	0	0	0	0	0	0	0	0	0	0	0
398	78.5597	67.4349	60.7208	51.9751	47.0549	41.9366	39.165	36.3777	35.7513	35.4332	36.622	38.1978	38.9192	37.8966	37.5861	35.7645	33.434	30.5906	27.3992	24.5369	20.5872	17.9558	15.3394	12.5656	10.0968	7.5956	5.4255	3.2626	1.8631	0.1447	0.0486	0	0	0	0	0	0	0	0	0	0	0	0	0	0	0	0	0	0	0	0	0	0
400	78.4682	67.6978	62.4471	55.3821	48.9416	45.2613	40.6025	37.8843	36.9373	36.97	38.4857	39.5174	40.1004	40.6311	39.5572	37.1086	35.2827	32.0966	29.0609	26.1546	21.6719	19.1283	16.3956	13.6798	11.2002	8.5584	6.2718	3.8511	2.5728	0.8626	0.0242	0	0	0	0	0	0	0	0	0	0	0	0	0	0	0	0	0	0	0	0	0	0
402	84.5598	74.6962	65.5076	56.2353	51.5473	46.5773	41.2653	39.2717	38.5253	38.7051	39.1294	40.5126	41.6995	42.0888	41.5555	38.9375	36.9448	34.0454	30.5978	28.022	24.1761	20.258	17.4146	14.9115	12.2752	9.6308	7.3133	4.8628	3.1052	1.6898	0	0.0099	0.0117	0	0	0	0	0	0	0	0	0	0	0	0	0	0	0	0	0	0	0	0
404	89.545	77.7017	68.5011	59.6158	52.6639	48.4434	44.3795	40.6638	39.6553	39.7885	39.3902	41.9563	42.6045	42.7616	42.7727	41.3051	38.4594	35.7568	32.4736	29.5297	25.5595	21.3756	18.5759	16.1305	13.3391	10.6299	8.1471	5.6011	3.7513	2.3243	0.562	0.0296	0.0233	0	0	0	0	0	0	0	0	0	0	0	0	0	0	0	0	0	0	0	0
406	88.0017	80.1141	68.2611	62.1647	55.8905	50.3908	44.2616	42.1832	40.8531	40.8206	41.0928	43.2231	44.4135	44.4037	44.2071	42.1277	39.5623	37.4271	33.9476	30.9394	27.275	22.5233	19.8383	17.2159	14.3944	11.6404	9.1743	6.3563	4.3325	2.8482	1.2387	0.0492	0.0349	0	0	0	0	0	0	0	0	0	0	0	0	0	0	0	0	0	0	0	0
408	94.9592	81.1581	73.6779	65.568	57.8256	52.8618	46.6026	43.5666	42.587	42.4365	42.9704	44.3459	45.323	46.3702	45.1002	44.256	41.7936	38.7662	35.5339	32.4814	28.662	24.877	21.1322	18.3285	15.4233	12.668	9.9905	7.3609	5.0641	3.4771	1.9448	0.0687	0.0232	0	0	0	0	0	0	0	0	0	0	0	0	0	0	0	0	0	0	0	0
410	93.6768	84.8253	76.3171	67.4346	59.9073	54.0824	48.2648	44.8551	43.4798	42.2947	43.1928	44.8459	46.4221	47.2285	47.5442	45.7254	43.7105	40.7639	37.3048	34.2445	30.7476	26.1656	22.423	19.389	16.4496	13.7749	10.9499	8.2638	5.842	3.8973	2.4478	0.8695	0.0116	0	0	0	0	0	0	0	0	0	0	0	0	0	0	0	0	0	0	0	0
412	96.5265	88.602	77.7063	68.129	62.2698	55.6091	50.2636	45.7467	44.9704	43.5698	44.3579	46.3705	47.3296	48.7695	48.3445	46.9709	45.2361	41.8943	39.1159	35.6074	32.2866	28.4631	23.7125	20.5074	17.6391	14.9621	11.9075	9.5086	6.7008	4.6757	3.1278	1.6258	0	0.0334	0.0393	0	0	0	0	0	0	0	0	0	0	0	0	0	0	0	0	0	0
414	101.0107	89.5646	80.4172	71.4277	63.1321	55.7677	51.264	46.9808	44.9255	44.7791	45.976	46.8211	48.3567	49.2923	49.2618	48.2891	46.2236	43.4393	40.4804	37.2257	33.7925	29.5208	25.4715	21.7065	18.8259	15.913	12.8628	10.1049	7.4522	5.3216	3.6513	2.246	0.589	0.1	0.0784	0	0	0	0	0	0	0	0	0	0	0	0	0	0	0	0	0	0
416	104.0007	93.2073	83.2706	73.6182	65.4005	59.4108	52.5619	48.9643	45.9248	45.6373	46.4869	47.8511	50.212	50.7583	50.9247	49.6276	48.0817	45.3945	42.6006	38.8009	35.5231	31.6112	27.0646	22.9552	20.0556	16.9	13.8473	10.8151	8.3914	6.1454	4.3124	2.8213	1.4463	0.1668	0.1177	0	0	0	0	0	0	0	0	0	0	0	0	0	0	0	0	0	0
418	105.468	96.3846	83.5854	74.4506	66.0875	61.3199	54.2544	50.8856	47.6976	47.0481	47.5315	48.5956	51.0254	51.9939	52.3174	51.1675	49.7372	46.6481	43.7127	40.6389	36.3919	32.8278	28.9272	24.2618	21.1006	17.9297	14.9532	11.841	9.3131	7.0864	4.7622	3.3962	1.9316	0.2343	0.0787	0	0	0	0	0	0	0	0	0	0	0	0	0	0	0	0	0	0
420	111.9208	97.6439	86.9471	76.7771	69.1975	61.7954	56.0419	50.505	48.1162	47.2903	47.9199	50.7208	51.3044	52.5669	53.3452	51.8976	50.4392	48.0239	45.5466	42.1235	38.1392	33.8537	30.4259	25.5769	22.2387	19.1382	16.0748	12.8735	10.1531	7.7453	5.4101	3.7822	2.6588	1.0977	0.0395	0	0	0	0	0	0	0	0	0	0	0	0	0	0	0	0	0	0
422	110.6434	100.1794	91.0293	79.4459	72.0036	64.6578	56.9087	52.2206	48.8716	48.9327	49.1689	50.6922	53.024	54.2417	54.0645	53.9039	52.1273	50.0616	47.47	43.372	39.8675	35.724	31.837	27.3445	23.4767	20.3595	17.052	13.9159	10.8169	8.3698	6.3485	4.3616	3.0969	1.7417	0	0.0593	0.0695	0	0	0	0	0	0	0	0	0	0	0	0	0	0	0	0
424	107.0421	100.3555	91.1059	80.4397	72.1728	64.8531	59.135	52.9117	50.528	49.3002	50.2514	51.6141	53.3974	55.2218	55.0775	54.2281	53.3814	51.0644	48.1822	44.889	41.6441	37.0765	32.7564	28.535	24.7233	21.4328	18.0359	14.9655	11.7452	9.1718	7.0657	4.9441	3.6854	2.2277	0.7289	0.1786	0.1395	0	0	0	0	0	0	0	0	0	0	0	0	0	0	0	0
426	110.809	100.6031	93.2421	82.5407	72.5294	67.3324	59.403	54.9062	51.071	50.8628	50.8811	52.3436	53.4151	55.2181	55.7536	55.8466	54.6381	52.6043	49.6591	46.5344	43.2212	38.6659	34.371	30.3541	26.0206	22.4711	19.1316	15.9502	12.7003	10.1748	7.6559	5.6516	4.0225	2.86	1.3613	0.299	0.2102	0.0159	0	0	0	0	0	0	0	0	0	0	0	0	0	0	0
428	118.2013	105.0291	94.5393	86.0703	75.3679	67.5321	61.1415	55.1011	52.1591	51.0455	51.2503	52.3792	54.5432	56.0264	56.8427	56.6908	55.8304	52.9078	50.8244	48.0276	43.8491	39.961	35.4484	31.4867	27.7015	23.5571	20.2703	16.7741	13.6866	10.8382	8.4846	6.2766	4.6636	3.3645	2.0045	0.4214	0.1783	0.0321	0	0	0	0	0	0	0	0	0	0	0	0	0	0	0
430	117.631	105.0417	94.8183	85.7415	77.6005	69.9659	63.1123	56.6385	53.2135	52.1675	51.7703	53.3799	55.7407	56.6425	58.1862	57.7139	56.6622	55.4707	52.8965	49.5561	45.5563	41.9197	36.6993	32.9644	28.7318	24.6558	21.2243	17.6077	14.6852	11.7031	9.1822	7.1562	5.1934	3.6459	2.517	1.0993	0.1459	0.0484	0	0	0	0	0	0	0	0	0	0	0	0	0	0	0
432	114.9871	107.7673	96.1969	86.6182	80.6842	71.3323	62.8482	57.3216	54.7437	52.5677	52.8465	53.304	55.9612	57.0052	57.8334	58.6405	57.7326	56.2416	53.6141	50.4747	46.8885	42.6075	38.1595	33.5563	29.9629	25.7389	22.0652	18.6162	15.6383	12.5649	10.0119	7.5758	5.765	4.2334	3.0875	1.7201	0.113	0.1142	0.0766	0	0	0	0	0	0	0	0	0	0	0	0	0	0
434	121.7353	108.8226	97.9246	87.39	81.1235	71.9805	64.5135	58.2834	54.7231	52.6422	53.4129	54.4202	55.6008	57.4199	58.8835	59.5926	58.2864	56.6563	54.4966	51.6688	47.5909	43.7228	39.2007	34.8395	31.302	27.0302	22.9141	19.6348	16.5199	13.4354	10.6112	8.1601	6.3851	4.7144	3.5424	2.1864	0.77	0.2303	0.154	0	0	0	0	0	0	0	0	0	0	0	0	0	0
436	120.8239	109.6721	99.7618	87.6625	81.4566	72.9703	65.7778	59.0266	54.9667	53.633	54.2374	54.6659	56.3084	57.603	59.5478	59.4563	58.8718	58.014	55.6472	52.1932	48.7972	45.2138	40.0025	35.7812	32.1255	28.2876	23.8017	20.6086	17.4326	14.3331	11.1742	8.9265	7.1264	5.253	3.9899	2.6858	1.2987	0.348	0.2324	0.021	0	0	0	0	0	0	0	0	0	0	0	0	0
438	125.0186	112.595	101.1857	91.3274	82.2199	74.0524	66.3155	59.9997	56.148	54.573	53.7338	53.3739	57.2057	58.1353	59.3704	59.9784	59.9167	58.4657	56.9632	54.149	49.7981	46.5326	41.3571	37.2339	32.9863	29.5354	24.7309	21.5013	18.222	15.023	11.9113	9.766	7.694	6.0325	4.4424	3.1806	1.7394	0.4677	0.2058	0.0423	0	0	0	0	0	0	0	0	0	0	0	0	0
440	121.7224	113.2376	104.5856	91.4855	84.765	75.7493	68.4376	60.0964	57.1147	54.3938	54.7079	55.9479	57.2884	58.5	59.8087	60.3219	60.2518	59.654	57.557	54.3189	51.1081	46.7289	42.3261	37.6369	34.289	30.4036	25.964	22.1672	18.8627	15.6023	12.6587	10.279	8.2859	6.4885	4.8905	3.5217	2.4114	0.9909	0.1788	0.064	0	0	0	0	0	0	0	0	0	0	0	0	0
442	126.8372	113.6816	101.9922	91.4106	84.0459	75.6632	68.4502	62.0919	58.2143	54.799	53.9898	55.9652	56.4631	59.0493	59.8421	60.7728	60.644	60.2788	58.1224	55.4084	52.3849	47.673	43.8072	38.7589	34.9737	31.3188	26.7219	22.8234	19.4961	16.0961	13.4061	10.8777	8.8043	7.1554	5.306	4.1652	2.7482	1.637	0.1512	0.143	0.091	0	0	0	0	0	0	0	0	0	0	0	0
444	118.3566	112.7524	100.7796	92.5602	85.9337	77.1465	68.3308	61.7787	58.0252	54.7093	54.5983	56.0093	56.6743	58.5372	60.4719	60.5697	61.21	60.8464	58.879	56.2255	52.8145	48.9473	44.0157	39.8195	36.1702	31.8288	28.351	23.4867	20.0564	16.5954	14.1628	11.4677	9.4179	7.338	5.8501	4.5232	3.392	2.1495	0.8416	0.2806	0.1831	0	0	0	0	0	0	0	0	0	0	0	0
446	124.7061	111.1305	102.2222	94.3444	85.9392	77.8515	69.9807	62.9725	58.1094	55.4139	54.9295	54.806	57.0753	58.9016	60.0912	61.0324	61.4457	61.0743	59.0777	56.7802	54.1415	49.2335	44.7377	40.2864	36.8098	32.8282	28.7649	24.1728	20.5955	17.3855	14.7899	12.0726	10.1147	8.2457	6.4512	4.8394	3.7204	2.6152	1.3593	0.4203	0.2767	0.0376	0	0	0	0	0	0	0	0	0	0	0
448	123.2534	111.2972	100.8164	95.2691	86.1247	77.7978	70.9437	63.2213	58.7419	55.6909	54.5404	55.1968	57.1432	58.2902	60.0624	61.063	61.9615	61.4027	60.0153	57.8002	54.3364	50.2601	45.7518	40.8701	37.4561	33.6672	29.7493	25.0157	21.1541	18.1974	15.1353	12.6935	10.6944	8.7707	7.1068	5.5113	4.0497	3.1877	1.9342	0.5624	0.2746	0.0758	0	0	0	0	0	0	0	0	0	0	0
450	124.3097	109.3407	101.7673	96.6258	86.8486	78.1164	71.1446	64.6726	60.5698	56.4976	55.0469	54.8159	56.5839	58.1113	59.2283	61.3871	61.6111	61.7604	60.2102	58.1946	54.7728	50.5805	46.3617	41.471	38.0653	34.1214	30.5977	26.0702	21.7192	18.7199	15.4844	13.3229	11.2238	9.3152	7.6834	5.9749	4.3614	3.4646	2.3311	1.1418	0.2723	0.1146	0	0	0	0	0	0	0	0	0	0	0
452	118.0093	111.5919	106.0683	94.9181	88.3881	78.8229	71.5181	64.143	58.679	55.8247	54.5868	55.4946	56.8861	58.0645	59.0393	61.4543	61.0395	60.8192	60.2465	58.3163	55.2114	51.7008	46.9731	42.172	38.2364	34.9672	30.9294	26.9111	22.3009	19.1059	16.1475	13.9372	11.7658	9.8765	8.1645	6.4786	4.9103	3.7723	2.8278	1.6021	0.2701	0.2145	0.1161	0	0	0	0	0	0	0	0	0	0
454	117.1122	112.715	102.2841	94.9148	86.5479	79.6492	71.0177	63.4319	59.3484	56.3732	55.5307	54.8691	56.0436	57.7975	59.1602	60.5825	61.0552	60.9681	60.5745	57.88	55.2059	51.8321	47.089	42.6478	38.716	35.2418	31.6266	27.3777	23.0898	19.4957	16.8198	14.4994	12.3154	10.3645	8.5427	7.0383	5.3981	4.1938	3.2444	2.0401	1.1256	0.3769	0.234	0	0	0	0	0	0	0	0	0	0
456	115.3241	118.0013	104.1663	93.9862	87.2799	80.5055	73.0782	64.3928	59.2275	56.8225	54.6023	55.0894	56.0091	57.4478	59.6183	60.0446	61.3309	60.9021	60.7586	58.6071	55.4209	52.3865	47.5211	43.4259	39.6666	35.9464	31.8624	27.6853	23.9636	19.9201	17.4668	15.0923	12.8924	10.539	9.0684	7.4518	5.8911	4.4732	3.4693	2.5203	1.3104	0.5427	0.3545	0.0247	0	0	0	0	0	0	0	0	0
458	117.1848	114.7077	101.6565	94.5038	85.481	78.9376	71.7296	65.4116	59.2943	56.3708	54.3681	54.2429	55.9025	56.5928	58.4905	60.2721	60.8407	60.2731	60.7629	58.6943	55.867	51.5417	47.2048	43.8445	40.3779	37.0142	32.3608	28.8366	24.4172	20.3803	18.0373	15.5532	13.2487	10.9815	9.6001	7.7762	6.316	5.1296	3.8123	2.8478	1.8125	0.7128	0.2965	0.0499	0	0	0	0	0	0	0	0	0
460	118.3478	113.884	103.2565	95.1978	87.9774	81.6031	72.7527	64.897	60.8047	56.0322	54.5524	55.0756	55.7383	56.757	58.557	59.6527	60.0401	60.8549	59.7373	58.4269	56.1218	52.3022	47.6442	43.9775	40.2308	36.9966	33.367	29.1094	24.9933	21.3722	18.366	15.854	13.5125	11.4312	10.0512	8.1985	6.8381	5.4192	4.1123	3.1885	2.1942	1.213	0.2371	0.0756	0	0	0	0	0	0	0	0	0
462	120.1767	110.7234	103.6661	94.1963	87.3961	78.6913	70.9897	66.0198	61.4877	56.7715	54.8022	54.4628	55.3078	56.3546	57.1182	59.5242	60.869	59.9341	60.0232	57.6864	55.5872	52.1731	47.7571	43.9514	40.5182	37.3133	33.2986	29.6346	25.7485	22.0099	18.7182	16.1755	13.7676	11.9013	10.2964	8.9307	7.2025	5.7971	4.4789	3.5176	2.5009	1.6014	0.1766	0.1402	0.0751	0	0	0	0	0	0	0	0
464	118.162	108.4244	98.9908	94.9368	88.2686	79.4963	73.3772	65.4776	59.7682	56.3157	55.0913	54.1849	54.8598	55.77	56.5746	58.281	59.7176	60.3874	59.3791	58.3508	55.5002	52.0574	47.8799	44.4059	40.8269	37.3614	34.0178	29.8369	25.8999	22.7198	19.0735	16.4737	14.0249	12.3795	10.6014	9.1864	7.5418	6.2607	4.7782	3.7829	2.8534	1.8555	0.825	0.2451	0.1519	0	0	0	0	0	0	0	0
466	115.9613	111.3165	97.8385	93.6327	86.696	79.8039	72.7521	65.188	60.4281	56.1462	54.2126	53.8191	54.3496	55.7411	57.4128	58.152	59.149	59.5189	59.9774	57.5528	55.5634	52.2174	47.9888	43.7862	41.2086	37.7666	34.2148	30.2808	25.8808	22.8791	19.4379	16.7664	14.5338	12.7276	10.9142	9.7128	7.9639	6.5612	5.2779	3.9547	3.0716	2.1852	1.1501	0.3524	0.2306	0.0157	0	0	0	0	0	0	0
468	113.7124	110.8665	97.4157	93.3621	87.4571	78.8778	72.2742	64.1367	60.373	56.2943	53.7337	53.6188	53.3759	54.4142	55.7907	57.1504	58.5609	58.8363	59.0375	57.0673	54.5241	52.1499	47.841	44.2972	41.3661	38.2306	34.6298	30.3109	26.7361	23.2028	20.0309	17.0664	15.0555	12.797	11.2348	9.9145	8.2347	6.7628	5.5971	4.272	3.4455	2.41	1.6455	0.4624	0.1925	0.0318	0	0	0	0	0	0	0
470	111.3779	103.8094	99.8327	93.5111	86.3272	80.6038	71.7562	63.8006	60.2074	56.0787	53.6208	53.4029	53.2444	53.8527	55.703	56.6223	57.3331	58.3717	57.6153	56.6328	54.8171	51.8826	47.7881	44.4462	41.0141	38.3502	34.7952	30.7275	26.9485	23.9281	20.6489	17.3689	15.2956	12.8644	11.5599	10.1478	8.7501	7.2756	5.7957	4.4984	3.4947	2.7759	1.9432	0.9154	0.1534	0.0483	0	0	0	0	0	0	0
472	109.2262	104.2259	97.6367	89.7441	87.3994	79.8673	71.7747	64.9027	60.6584	54.8505	54.0594	52.594	52.7209	52.5132	54.1559	56.6529	56.3088	57.5189	57.3313	56.3017	54.3475	51.061	47.8376	44.0799	41.3231	38.1606	34.9251	30.6259	27.0062	23.9406	20.8945	17.7157	15.427	13.2398	11.892	10.4085	9.036	7.4478	6.3393	4.9672	3.8455	3.0536	2.1759	1.2931	0.1135	0.1193	0.0833	0	0	0	0	0	0
474	106.9708	101.7258	97.1425	89.9173	85.2131	77.2555	70.5527	64.8056	60.0417	56.0873	53.2896	52.3053	52.1596	52.5615	54.0245	55.1267	55.8971	56.9685	57.0675	55.4153	53.4092	50.8174	47.504	43.9573	40.5815	38.3242	34.1656	30.5689	27.3388	24.132	21.2431	18.2726	15.5559	13.6207	12.1764	10.6725	9.1562	7.8101	6.5811	5.3026	3.9211	3.3281	2.4624	1.6887	0.7226	0.2471	0.169	0	0	0	0	0	0
476	104.5134	100.0174	96.5842	90.15	86.3312	79.6055	70.96	64.1132	58.4681	54.9692	52.6056	52.2991	51.2509	51.432	52.6586	54.0159	54.6199	55.4903	56.0679	55.1262	53.0414	50.3803	47.0194	43.2994	40.3737	37.7554	34.5143	30.9426	27.4869	24.3338	21.2486	18.1975	15.6679	13.9414	12.4526	10.9298	9.3598	8.1291	6.6272	5.6906	4.3611	3.466	2.6938	1.9043	1.1751	0.378	0.2568	0.0549	0	0	0	0	0
478	101.8657	98.1411	93.5548	89.396	83.7272	76.6499	71.0365	63.5765	58.7653	54.4178	51.7696	51.9079	51.0099	50.3632	52.1471	53.6012	54.102	54.5987	54.7354	53.4534	52.1868	49.7797	46.4762	43.0126	40.7226	37.5113	34.209	30.9105	27.6499	24.4517	21.5425	18.3933	15.7634	14.2086	12.6848	11.1263	9.5369	8.4364	7.0351	5.538	4.6052	3.6684	2.8417	2.2643	1.3857	0.5117	0.3023	0.1112	0	0	0	0	0
480	99.1308	96.1944	94.4352	89.0055	82.7289	75.6601	70.1627	63.3252	57.1928	54.8909	51.8412	51.0206	50.6681	50.11	50.9623	52.3364	53.5865	54.284	53.9549	53.3852	51.5312	49.4281	45.8755	42.4033	40.0074	37.2851	34.5869	31.0671	27.4821	24.5622	21.701	19.1458	16.643	14.4244	12.8829	11.2817	9.7156	8.6213	7.2867	5.9734	5.0142	3.8748	3.2998	2.5752	1.8133	0.9222	0.3488	0.1688	0	0	0	0	0
482	96.1039	93.977	89.9323	88.0547	82.3532	75.5104	68.3821	62.5653	57.7918	54.1175	51.7523	49.8049	49.0108	49.6863	50.4388	51.1807	51.7918	53.1715	52.8981	52.4921	50.6062	47.983	45.4547	42.6809	39.8632	37.2143	34.2743	30.9441	27.5592	24.7276	21.842	19.1158	16.7854	14.6111	13.055	11.3645	9.8753	8.4714	7.7647	6.28	5.1611	4.0886	3.3981	2.6876	1.9986	1.2367	0.3955	0.2473	0.0894	0	0	0	0
484	93.0081	91.7034	92.0844	86.4419	81.8264	75.03	69.2717	63.5056	57.7873	53.2956	50.4664	49.8671	49.0022	49.4265	49.7822	50.4366	51.0116	52.832	52.0234	51.7306	50.6185	48.1818	44.7756	41.6881	39.8465	36.9422	34.357	30.4721	27.4491	24.6774	22.0597	19.3879	17.3106	14.7987	13.1785	11.4469	10.0364	8.66	7.6869	6.7406	5.3959	4.3579	3.5934	2.9004	2.1943	1.5482	0.7991	0.3476	0.1806	0	0	0	0
486	89.8257	89.3561	89.7465	84.0711	79.4283	74.7505	69.085	62.4436	57.1276	52.6036	50.5468	48.3024	48.0928	48.4574	48.4929	49.2424	50.7727	50.7036	51.2809	50.1077	49.0096	47.333	44.1699	41.3823	39.3983	36.4773	34.4026	31.1422	27.247	24.6905	22.1466	19.5114	17.2135	14.9843	13.2743	11.62	10.1856	8.8489	7.933	6.9267	5.5927	4.616	3.7323	3.0886	2.5967	1.8119	1.0052	0.4496	0.2733	0.0235	0	0	0
488	86.5598	86.9371	87.3369	81.3384	79.6387	74.3605	67.2023	62.083	56.2517	52.3132	50.601	48.1467	47.3576	47.0566	48.215	49.6605	49.0329	50.3708	50.1548	49.8713	48.8155	46.4689	43.8939	41.3689	39.15	36.2263	33.6559	30.9528	27.6409	24.6484	21.8914	19.4595	17.5152	15.3442	13.367	11.7921	10.3114	9.0381	7.964	7.1032	5.8036	4.979	3.8544	3.4424	2.7001	2.0817	1.3938	0.5533	0.239	0.0474	0	0	0
490	83.2297	84.4655	84.8746	80.7322	80.2407	72.6646	68.6285	61.0653	56.0634	51.2926	49.4154	47.2723	46.4394	47.0274	47.2406	48.332	48.6525	49.134	49.1211	49.1491	48.248	45.5894	43.1179	40.657	38.3983	36.5299	33.6319	30.4488	27.3911	24.6468	22.4465	19.4819	17.5195	15.5051	13.4593	11.9428	10.4378	9.2292	7.9829	7.2527	6.1419	5.178	4.1638	3.4077	2.8939	2.3184	1.6561	1.0718	0.204	0.0718	0	0	0
492	79.9135	81.8776	82.4403	82.6777	76.3766	70.3783	66.1898	60.7505	56.8914	52.2694	47.5233	46.5403	46.6576	46.2265	46.1044	47.3675	48.0954	48.4781	48.8287	48.1409	47.0123	44.8538	42.0999	40.0516	38.7582	35.576	33.554	30.6587	27.048	24.5482	22.343	19.5561	17.593	15.5416	13.564	12.0944	10.6511	9.4312	8.1444	7.3683	6.277	5.2596	4.4533	3.5669	2.9336	2.4869	1.9411	1.1947	0.1686	0.1462	0.086	0	0
494	76.5259	79.0844	79.9474	80.379	77.9511	70.1726	66.7082	60.1352	54.9928	51.551	48.7005	46.1074	45.0827	45.5381	45.6771	45.3502	46.8615	47.2111	47.2894	47.2535	46.0442	45.2603	41.5511	39.4343	37.6258	35.9341	32.8591	30.1681	27.1235	24.4013	21.9896	19.5634	17.9012	16.103	14.0232	12.2468	10.8667	9.5149	8.3077	7.6041	6.4183	5.5272	4.739	3.7067	3.0273	2.7355	2.0886	1.4171	0.7838	0.2722	0.1737	0	0
496	73.0446	76.205	77.3644	77.6775	74.8268	69.7918	63.5396	57.7757	55.742	50.5933	46.9332	46.1938	44.3707	44.0667	44.8206	45.3035	45.2849	45.8231	46.4065	45.5723	45.1784	43.937	41.0423	39.0693	37.6461	35.5888	32.7896	29.7069	27.1315	24.5205	21.8827	19.7882	17.6959	16.0269	14.2297	12.396	11.0204	9.5347	8.4699	7.4978	6.5959	5.5939	4.871	3.98	3.2928	2.7787	2.305	1.7115	0.9678	0.4004	0.263	0.0409	0
498	69.4743	73.3065	74.6426	74.8954	74.3576	68.8261	64.562	59.699	53.5649	49.7104	47.0686	45.6019	43.8427	43.8905	43.5221	44.2118	45.0175	44.8977	45.4116	45.6096	43.6386	43.0631	39.7364	38.1296	36.6192	35.1055	32.4659	29.4242	26.5642	24.1359	21.6101	19.7606	17.8509	16.108	14.2849	12.5422	11.0496	9.5504	8.6312	7.5547	7.0989	5.952	5.1736	4.2123	3.2334	3.0998	2.58	1.9434	1.2588	0.5308	0.2732	0.0826	0
500	66.3253	70.2133	71.8663	72.0581	70.8586	67.5309	62.3894	58.5675	52.8719	49.2045	46.0293	44.9109	43.0796	43.3284	42.3145	42.9781	44.0107	44.5499	44.8363	44.1497	43.3686	42.0548	39.4005	37.6859	36.2644	34.1125	31.9725	29.4776	26.7135	24.119	21.6279	19.7464	17.7547	16.0345	14.5405	12.6809	11.0775	9.7212	8.7433	7.6114	6.8024	6.172	5.1946	4.5776	3.4853	3.1379	2.5763	2.054	1.5486	1.0716	0.2835	0.125	0
502	67.429	67.0417	68.833	69.1446	69.2444	66.227	62.4628	56.2163	52.2553	48.5554	45.4115	43.1253	42.8232	41.2335	41.7037	42.3768	42.6038	43.1247	43.197	42.2957	42.5657	41.0544	38.6047	37.3401	35.1355	33.4523	31.594	28.9031	26.4419	23.8919	21.5056	19.3873	17.6408	16.1564	14.4371	12.733	11.101	9.8906	8.7512	7.6657	6.9791	6.1329	5.4438	4.7278	3.4885	3.1012	2.8347	2.282	1.7503	1.168	0.2939	0.2256	0.196
504	67.8979	63.8148	65.5629	66.1788	67.8006	65.1031	60.2976	55.7461	51.1704	46.8406	43.5878	42.3218	41.4677	40.4858	41.1348	40.9593	41.5027	42.3486	42.2022	42.0343	41.1524	39.4167	38.4531	35.8936	34.4683	32.8825	30.7251	28.6211	25.626	23.4749	21.2324	19.2159	17.3625	15.9783	14.4675	12.9216	11.1233	9.9584	8.7581	7.7199	6.6825	6.2585	5.6469	4.8041	3.8891	3.039	2.9005	2.4724	1.8385	1.4268	0.6557	0.3859	0.3953
506	58.4526	60.6054	62.3114	65.3291	65.4945	63.1738	59.8286	55.4485	50.7246	46.6243	43.9438	41.4031	40.2695	39.7005	40.1542	39.6958	40.0814	41.055	40.9115	40.3481	40.2174	38.6146	37.1887	35.2767	34.0529	33.1997	30.5284	27.9112	25.3419	23.3516	21.2277	18.4776	17.6983	16.22	14.1879	12.6836	11.1576	9.9859	8.8309	7.783	6.7763	6.4022	5.6316	4.8292	4.2984	3.2215	2.9799	2.5216	2.15	1.5784	1.1576	0.5495	0.5986
508	56.3045	57.4001	62.1475	62.9221	63.2119	61.9796	58.627	54.0271	49.8419	45.9279	43.1207	40.6427	39.9884	38.7606	38.8674	39.2056	39.234	39.4422	40.0705	39.3895	39.3274	38.0352	35.7032	34.6425	33.3052	31.5356	29.7119	27.2302	24.8646	22.927	21.2615	18.8996	17.4783	15.842	14.5397	13.0849	11.289	10.0238	8.914	7.8037	6.8786	6.5116	5.7394	5.161	4.415	3.4895	2.9403	2.7923	2.3783	1.7966	1.2572	0.7169	0.8065
510	55.3128	57.9674	59.4067	60.4548	60.8711	61.2566	58.1021	51.7263	48.7418	44.5443	42.9907	40.3257	38.4985	37.7383	37.9409	38.4441	38.8509	38.7089	38.6838	38.7118	37.902	36.9286	35.0074	33.5796	32.6063	31.0007	29.4839	27.4711	24.9544	22.4607	20.3523	18.6094	16.8388	15.5203	14.1982	13.023	11.4107	10.0603	8.9707	7.7971	6.9817	6.335	5.9192	5.2144	4.562	3.7311	2.8939	2.7185	2.475	2.017	1.5126	1.0392	1.0187
512	54.2821	55.2638	56.5943	57.8597	58.4649	58.5598	55.5424	50.7057	47.1797	44.3951	41.159	38.5817	38.3497	37.0805	36.1192	36.7248	37.326	37.4836	37.4023	37.7841	37.1803	35.749	34.413	33.1421	31.5871	30.8311	29.0662	26.4706	23.9578	22.2571	20.1622	18.3087	17.0301	15.5039	14.2021	12.6412	11.3025	10.0941	8.9727	7.7879	7.0844	6.354	6.0595	5.3608	4.6533	3.9954	2.92	2.6739	2.5349	2.2037	1.503	1.2377	1.2349
514	53.2201	54.7395	53.7189	55.1438	56.002	57.0466	54.3284	51.2122	46.3747	42.7966	40.3381	38.9526	36.9253	35.982	35.519	36.3184	36.3316	36.9419	36.6452	36.4524	35.777	34.7936	33.1343	31.9529	31.4836	29.8594	28.1341	26.3268	23.8245	21.9043	20.1342	18.1704	16.7263	15.5201	13.863	12.9875	11.439	10.1001	8.973	7.8987	7.1318	6.3721	5.9029	5.5809	4.8557	4.0948	3.2654	2.4724	2.4598	2.2635	1.7303	1.3505	1.3474
516	52.1674	55.3975	50.8201	52.4083	54.4437	54.8579	54.216	48.1396	45.361	42.0614	38.9238	38.0001	36.3344	35.0223	34.9704	34.9321	35.4213	35.4648	35.9814	35.2709	35.0941	33.8739	32.5393	31.2081	30.0143	29.3084	27.4916	25.891	23.1335	21.4144	19.5826	17.8695	16.1721	14.703	14.024	12.7618	11.4757	10.1449	8.9784	8.0163	7.0709	6.3942	5.8959	5.5258	4.9339	4.2099	3.5424	2.4887	2.4874	2.2828	1.8956	1.4634	1.4601
518	51.1201	47.9377	47.8903	50.7988	52.5714	52.6537	52.7108	47.52	44.3474	40.4587	38.6908	36.3696	35.0358	34.9468	33.9856	33.8289	33.9619	34.6904	34.6547	34.5999	34.0483	32.9818	31.837	30.1646	29.3265	28.637	26.8088	25.2866	22.6933	21.016	18.9548	17.4363	16.3631	14.9291	13.724	12.4403	11.4664	10.0588	8.9886	8.0251	7.0123	6.4201	5.8756	5.5831	5.0633	4.2623	3.6443	2.5457	2.2349	2.4231	2.1367	1.6024	1.5988
520	50.0366	40.8315	46.1783	48.6508	50.6454	50.3891	50.2465	46.4983	43.4579	40.6021	37.6025	36.5906	34.5374	33.1418	32.8875	32.7237	33.3726	33.3844	33.5102	33.1837	32.3249	32.0961	30.9601	29.8029	29.0801	27.8889	26.3617	24.7038	22.2595	20.5096	19.1096	17.3468	15.9633	15.0477	13.7273	12.3464	11.2508	10.1488	8.9968	7.9736	7.0438	6.445	5.8731	5.6006	4.905	4.417	3.8852	2.5902	2.0944	2.5789	2.0789	1.7662	1.7622
522	48.9137	40.4072	47.2698	46.4425	48.3719	48.0614	48.5983	45.9618	43.1877	39.1279	36.8136	35.2736	34.1038	32.4646	32.3817	31.78	32.5058	32.2755	32.653	32.6547	31.8582	31.8135	29.4569	28.9355	28.5514	27.3339	26.1999	23.9488	22.1701	20.5666	18.44	16.7115	15.812	14.6473	13.1296	12.2684	11.3777	10.1445	9.0259	7.9185	7.0738	6.4168	5.8686	5.6599	5.0086	4.4354	3.9708	2.9063	1.902	2.3654	2.1892	1.8374	1.8332
524	47.7549	39.9637	44.6579	44.1774	45.7464	45.6743	47.1569	44.3887	41.2206	38.8103	36.0593	34.5321	31.7912	31.7115	31.5479	31.9265	31.2223	31.7098	31.4124	31.1938	30.8239	29.9294	29.4362	28.2873	27.7359	26.1325	25.4889	23.5569	21.5642	20.0945	17.9877	16.7521	15.5965	14.3997	13.1496	12.2951	10.954	10.052	8.9875	7.8603	7.0765	6.3603	5.8626	5.4434	5.1272	4.5462	4.1224	3.3497	2.1045	2.0997	2.2506	1.8744	1.8702
526	46.5922	39.5281	46.5263	41.8845	43.087	43.8201	45.0521	43.544	39.9858	37.6366	35.1888	33.6891	31.9886	31.2328	30.7182	30.4659	30.7599	30.6507	30.4733	30.5228	30.2672	29.5605	28.3055	27.1748	26.6741	26.3053	24.69	22.8966	21.2271	19.6821	17.826	16.5295	15.1007	14.1808	12.83	11.9978	11.1455	10.0909	8.8924	7.8042	7.0295	6.3053	5.8591	5.4251	5.0474	4.4842	4.0671	3.3853	2.2148	1.6973	2.3509	2.0899	2.0851
528	45.422	39.0985	44.8503	39.5582	40.7077	42.1535	42.9193	43.1714	40.2316	35.9026	33.8142	32.6421	31.8062	30.1597	30.3946	29.3895	29.7314	29.8399	29.3267	29.5023	28.9828	28.9229	27.9444	27.2504	26.023	25.3636	23.9121	22.4856	20.5468	19.0355	17.7268	15.987	15.106	13.7222	12.8026	12.0034	10.6448	9.8717	9.0659	8.0824	6.9842	6.3098	5.8497	5.4086	5.1317	4.6025	4.2702	3.6879	2.5028	1.4641	2.1065	2.0455	2.0408
530	44.2114	38.6474	36.9065	36.5432	38.7915	40.4365	40.7259	40.8177	38.0169	36.0264	33.6851	31.9194	30.6226	28.7196	28.6016	29.1428	28.6299	29.2542	28.3229	28.7732	28.714	27.9652	27.4007	26.163	25.517	24.9417	23.3493	22.3333	20.2946	18.7411	17.4467	15.453	14.422	13.6965	12.44	11.7066	10.6086	9.962	8.7336	7.8946	6.9358	6.3127	5.8221	5.3901	4.9345	4.6446	4.2298	3.7823	2.9239	1.444	1.6763	2.1186	2.1137
532	42.9671	38.1806	28.5155	39.517	36.827	38.3498	38.4781	39.7188	37.6405	33.9082	32.6704	31.092	29.6986	28.0274	28.9373	27.8481	27.9204	27.9133	28.2005	28.377	27.5039	26.8168	26.0707	25.2619	25.0432	24.0688	22.9636	21.3955	19.9343	18.1889	16.6803	15.3167	14.5664	13.4123	12.3691	11.288	10.6836	9.7167	8.8105	7.9771	6.8853	6.2982	5.793	5.3704	4.9328	4.642	4.2102	3.81	2.995	1.6371	1.3769	1.9644	1.9599
534	41.6821	37.692	30.1104	37.7425	34.8081	35.8772	36.1694	38.1128	36.3357	34.282	31.8063	29.9568	28.9723	27.8991	27.2031	27.1519	27.1624	27.5903	27.2265	26.8342	27.2083	26.2584	25.0562	24.5579	24.2787	23.2629	22.7396	20.9999	19.3326	17.8403	16.1301	14.9031	14.0963	13.0501	12.2948	11.2153	10.2097	9.459	8.832	7.8999	6.8317	6.2734	5.7773	5.3488	4.8862	4.6353	4.2535	3.8872	3.2993	2.2086	1.0159	1.919	1.9147
536	40.3775	37.2009	31.7528	37.0461	32.7519	33.3581	35.3691	36.4052	35.0311	33.1718	31.0977	29.1578	28.3352	26.984	26.3396	26.4527	26.4485	26.2638	26.356	25.8723	25.662	25.2923	24.4685	23.999	23.582	23.1979	21.9721	20.589	18.8017	17.4211	16.091	14.9952	13.5991	12.8855	12.1535	11.058	10.1893	9.4513	8.7776	8.0169	7.0723	6.2494	5.7625	5.2925	4.8396	4.4994	4.2722	4.0086	3.2355	2.5877	0.9679	1.5419	1.5384
538	39.0504	33.3767	33.4446	35.8292	30.6547	33.4215	33.6276	34.6652	34.7139	32.0073	30.2343	29.1918	27.4898	26.8431	25.9863	25.6906	25.5728	25.636	25.5907	25.5844	25.756	25.0429	24.0577	23.5647	22.871	22.5133	21.5789	19.7985	18.6913	16.8535	15.9932	14.8089	13.5487	12.4825	11.4704	11.0295	10.2597	9.1841	8.4481	7.5905	6.8851	6.2261	5.7309	5.2179	4.7929	4.3848	4.1699	4.0361	3.3771	2.8407	1.2014	1.0989	1.0965
540	37.6792	35.2186	35.1703	35.0294	31.7107	31.4958	31.8343	32.8731	34.1874	30.9276	29.2776	28.546	26.6034	26.1027	24.8184	24.9344	24.9461	25.0336	24.5934	24.5839	24.691	24.4644	23.1927	22.8732	22.4167	21.5529	20.6773	19.2049	18.0879	16.4498	15.4289	14.0369	13.274	12.0331	11.3653	10.5057	9.9255	9.1482	8.3471	7.6034	6.906	6.2004	5.6606	5.1398	4.7436	4.3185	4.1719	3.9396	3.4714	2.9887	1.6175	0.6473	0.6459
542	36.3495	33.9026	30.9978	28.4577	32.7517	29.5849	30.0253	31.1019	33.376	30.5782	29.1225	27.3466	25.8398	25.4655	24.3109	24.492	24.1072	23.9517	24.4285	24.1957	24.0171	23.8556	22.603	22.1331	22.0526	21.6937	20.2467	18.793	17.6563	16.5102	15.1895	13.742	13.1949	12.1939	11.2678	10.6535	9.5657	9.0897	8.3077	7.5734	6.6925	6.0585	5.6	5.1056	4.6959	4.2592	4.0331	3.7826	3.2995	3.0675	2.2471	0.4433	0.4423
544	43.951	33.1466	23.1433	14.6705	32.4798	27.6086	28.1183	29.2684	31.985	30.2598	27.5787	26.6524	25.1449	24.3711	24.1297	24.0357	23.0459	23.3984	23.5169	23.4067	23.1701	22.7487	22.1345	21.2844	21.3723	20.5318	19.483	18.468	17.167	16.0588	15.1622	13.6531	12.7064	11.8946	10.9155	10.331	9.4399	8.6938	8.2166	7.3618	6.6927	6.1514	5.5352	5.0682	4.6313	4.1964	3.9578	3.8143	3.3434	3.0451	2.4593	0.8226	0.8207
546	49.224	36.0007	23.8836	17.9477	31.9466	25.5529	26.1331	29.0446	30.2696	29.3016	27.4896	27.1871	25.0371	23.1638	23.9472	22.7508	23.1812	22.8104	22.9954	22.8411	22.3445	22.0347	21.5971	21.2729	20.7628	20.5286	19.1429	17.8889	16.701	15.4374	14.1678	13.2224	12.4665	11.5135	10.8803	10.1468	9.4787	8.624	8.0904	7.2379	6.7158	5.7836	5.4633	5.0113	4.5604	4.1278	3.7193	3.9403	3.342	3.0801	2.6997	1.2087	1.206
548	44.9821	34.9804	22.8378	21.3032	29.5104	23.4223	27.1168	27.2333	28.483	28.0308	26.0128	25.3635	24.1433	22.7823	22.4991	21.5729	22.4644	22.422	22.129	22.3406	21.7232	21.25	20.7917	20.2129	19.9283	19.6122	18.7266	17.5167	16.3713	14.9911	14.2555	12.8907	12.2254	11.4357	10.5136	10.0412	9.1289	8.5858	7.7155	7.0638	6.6499	5.9516	5.3846	4.9416	4.4927	4.0536	3.6712	3.7631	3.3808	3.1703	2.6772	1.718	1.7141
550	47.0568	33.923	24.1645	24.7459	29.3713	25.7975	25.1933	25.3688	26.6433	27.8074	26.522	24.5937	23.4087	22.6338	21.9179	22.1342	21.7782	21.5735	21.6647	21.534	21.1126	20.8226	20.4218	19.3775	19.2429	19.1784	18.5399	17.296	15.8645	14.7379	13.8706	12.5508	11.7535	11.0778	10.0462	9.643	9.0857	8.3879	7.7859	7.0962	6.6517	5.8724	5.17	4.8684	4.4218	3.9557	3.6208	3.6282	3.4402	3.0931	2.5766	2.0962	2.0914
552	39.2112	32.9218	28.04	28.3565	28.5591	23.7521	23.2811	23.537	24.8208	26.4374	25.1527	23.4971	22.5917	22.3239	21.3629	21.1236	21.2485	20.76	20.9914	20.704	20.8307	20.2133	19.7786	19.2523	19.0007	18.7453	17.9341	16.5617	15.645	14.7084	13.6125	12.0494	11.5787	10.8603	10.1754	9.5507	8.7006	8.2931	7.5358	6.8608	6.5123	5.7514	5.4	4.8052	4.3496	3.8546	3.5779	3.3241	3.4216	3.0344	2.6037	2.282	2.2768
554	46.0277	31.875	27.5694	23.8599	20.6491	25.2302	21.3018	21.6599	22.933	25.0943	24.2268	23.1441	22.1879	21.026	20.6248	20.6755	20.3693	20.211	20.0078	20.0673	19.9417	19.6911	19.0872	18.8995	18.0019	17.999	17.1785	16.1648	14.8603	13.8159	13.1799	12.0314	11.2274	10.5473	9.8208	9.0918	8.5532	8.1348	7.3286	6.9034	6.1702	5.9332	5.3386	4.7379	4.2522	3.7485	3.5321	3.2399	3.3757	3.1179	2.7816	2.3697	2.3643
556	46.841	39.377	25.0297	12.9334	2.6699	24.2251	19.2627	19.7258	22.4012	23.7991	22.7744	22.4829	21.4059	20.3029	20.3532	19.921	19.731	19.667	18.8986	19.3779	19.0046	19.1429	18.3903	17.3394	18.0217	17.4835	16.7318	15.8286	14.6952	13.7159	12.6311	11.8392	10.7499	10.2088	9.5807	9.1802	8.2968	7.884	7.1753	6.6959	6.3048	5.7326	5.2514	4.6853	4.1514	3.7058	3.4844	3.1529	3.1867	3.1422	2.7616	2.3927	2.3873
558	42.9016	37.0789	23.6284	12.2813	7.043	25.9934	17.1615	19.9896	21.2222	22.4626	22.673	21.9407	21.3891	19.8553	19.0158	19.1143	18.9666	18.7299	18.5145	18.7128	18.6641	18.4715	18.1087	17.7531	17.2146	16.7677	16.3337	15.7207	14.4136	13.2733	12.2777	11.2634	10.6579	9.7632	9.2567	9.0434	8.2899	7.5057	7.2832	6.3933	6.1983	5.649	5.2335	4.7542	4.0471	3.6614	3.4347	3.0629	2.9032	3.0601	2.7106	2.4436	2.438
560	42.5026	38.7521	23.9149	12.3998	11.561	23.9424	18.2566	18.767	19.9978	21.0756	22.0075	20.559	19.9688	18.97	18.3811	18.4988	18.4638	18.5456	18.5725	18.2501	18.2698	17.8311	17.0484	16.8781	16.5982	16.4691	15.658	14.8315	13.708	12.8646	11.881	11.0678	10.3205	9.7934	8.871	8.4481	7.9492	7.6037	6.9905	6.2838	5.8343	5.4382	4.9311	4.598	3.9377	3.6137	3.3818	2.9687	2.53	2.9295	2.8379	2.3782	2.3728
562	42.8512	39.2441	24.1981	14.9775	16.2247	24.1694	19.0344	17.4989	18.6567	19.6372	21.0699	20.6489	19.8509	18.5532	17.7649	17.9484	17.7032	17.8041	17.767	17.3345	17.156	17.13	16.5634	16.2019	16.187	15.5778	15.4298	14.5208	13.4502	12.4223	11.5088	10.7839	10.0457	9.2775	8.8306	8.3705	7.8747	7.1697	6.8038	6.2749	5.9031	5.5229	4.9606	4.5607	3.823	3.5626	3.2901	2.8702	2.5407	2.8095	2.5368	2.4925	2.4868
564	38.7783	36.3906	24.4791	20.137	21.0356	21.6537	19.8994	16.1864	17.197	18.1487	20.1024	19.0025	18.8887	17.4829	17.5328	17.4125	16.6297	17.0105	17.034	16.8994	16.6038	16.7682	16.4512	15.9311	15.5748	15.3764	14.6089	13.8495	13.1995	11.998	11.2126	10.2813	10.0219	9.4335	8.5894	8.1846	7.5947	7.2288	6.6076	6.0979	5.5071	5.1748	5.0017	4.4821	4.0573	3.5085	3.1943	2.8219	2.5507	2.6374	2.6207	2.462	2.4564
566	39.7131	33.5619	24.773	21.8093	19.2365	16.9051	19.4463	14.8387	15.6982	17.9225	18.945	19.3525	17.96	17.4388	17.131	16.9923	16.3796	16.3864	16.4633	16.4195	15.9353	16.0093	15.2967	14.7704	15.2069	14.6739	14.3446	13.5723	12.7445	11.662	10.8474	9.9277	9.5624	8.7798	8.334	7.8554	7.3121	7.0046	6.2824	5.8921	5.5463	5.2358	4.9315	4.4112	4.026	3.4534	3.1237	2.8004	2.5614	2.3745	2.5289	2.3843	2.3789
568	34.5482	36.5571	30.7536	20.1374	11.1012	3.3456	20.2966	13.4529	16.1772	16.2822	17.7556	19.0103	17.3497	17.1716	16.0369	16.3414	16.1996	16.62	15.5916	15.5911	15.5673	15.3992	14.967	14.5485	14.4607	14.2382	13.5764	12.7834	12.385	11.4556	10.4261	9.8062	9.4274	8.5971	8.1117	7.7457	6.9293	6.822	6.2701	5.7442	5.3092	5.0998	4.7642	4.4131	3.8861	3.3971	3.1073	2.7787	2.5728	2.3288	2.624	2.3429	2.3376
570	29.606	33.1421	28.2608	18.7316	10.6135	7.0026	19.8568	14.6263	14.5251	14.5853	16.5221	18.2864	17.2174	16.2173	16.0568	15.2087	15.9466	15.573	14.9843	15.219	15.0263	14.9879	14.3614	14.1397	13.681	14.0692	13.3862	12.1667	11.6583	10.6857	10.2048	9.3685	8.9599	8.3818	7.7531	7.4365	6.7911	6.5067	6.12	5.7326	5.2779	4.7714	4.4334	4.3259	3.8904	3.5194	3.0889	2.7923	2.5686	2.2806	2.4332	2.2976	2.2924
572	35.1345	33.0122	27.7899	19.345	11.0628	10.8003	21.6459	16.8843	12.8453	13.1167	15.2769	17.6367	16.3648	15.8139	15.2829	15.4836	15.0638	14.7308	14.7567	15.0097	14.6757	14.5132	14.1543	13.765	13.7122	13.722	13.0041	12.2443	11.4684	10.4341	9.9832	8.9421	8.7843	8.2779	7.5798	7.0951	6.4797	6.2586	5.9418	5.5672	5.2149	4.7689	4.5423	4.3008	3.8843	3.3843	3.0751	2.811	2.5384	2.2346	2.205	2.28	2.2748
574	32.4625	32.3122	29.7668	19.9685	13.4147	14.7323	21.1644	15.7358	11.1022	11.853	13.9812	16.6376	15.1454	15.7419	14.9463	14.6611	14.6857	14.8561	14.118	14.3205	14.0151	14.0291	13.2948	13.3915	13.315	13.1407	12.6414	11.7294	11.2898	10.1077	9.6069	9.0711	8.4294	7.9099	7.6535	7.1537	6.8323	6.1734	5.8072	5.3643	4.8591	4.7925	4.5069	4.3445	3.7095	3.408	3.0591	2.7981	2.5058	2.1858	1.8576	2.2616	2.2564
576	32.5591	29.3701	27.9654	20.6017	17.7724	18.7994	20.0089	17.1578	9.296	10.5409	14.7491	15.7143	15.7348	14.452	13.934	13.9399	13.9954	13.8534	13.932	13.9129	13.3604	13.4047	13.1139	12.8921	13.0306	12.4454	12.0206	11.4624	10.6086	10.0187	9.6129	8.4387	8.2511	7.6638	7.2265	7.1381	6.5552	5.958	5.6355	5.2038	4.8106	4.5637	4.3667	3.9858	3.7238	3.3197	3.0407	2.7675	2.4596	2.134	1.8048	2.1535	2.1486
578	36.9581	23.0937	24.7736	21.2447	18.2491	15.5648	13.4855	17.2866	7.427	12.9746	13.6159	14.7522	14.5795	14.4073	14.0426	14.0944	13.807	13.5559	13.663	13.3818	13.1422	12.9774	12.8468	12.2057	12.4556	12.2472	11.7167	11.1055	10.0732	9.825	9.007	8.4005	7.8652	7.7439	7.0193	6.5275	6.2116	5.682	5.6243	5.3192	4.6075	4.5612	4.2165	3.8338	3.739	3.435	3.1469	2.7344	2.4105	2.0772	1.7491	1.9599	1.9555
580	28.7046	24.197	23.0093	21.5071	15.334	9.9715	5.4743	18.3604	11.5109	11.8482	12.4395	13.7516	14.5329	13.7549	13.6364	12.9586	12.8217	13.0589	12.9045	13.3301	13.0073	12.3905	12.1203	11.9628	12.0649	11.6419	11.4925	10.7682	9.7973	9.4908	8.9728	8.048	7.7673	7.3149	7.1653	6.4975	6.2689	5.6397	5.2812	4.9833	4.6915	4.3761	3.8874	3.8683	3.563	3.1779	2.9685	2.6987	2.3575	2.0164	1.6907	1.7714	1.7674
582	29.6044	19.5714	18.0801	20.2254	14.6184	9.7411	7.8986	17.6541	11.8337	10.6837	11.3316	12.7162	13.9304	13.2884	13.0136	12.833	12.4148	12.4737	12.3984	12.0751	12.3009	12.3385	11.8219	11.3639	11.7894	11.5225	11.0967	10.6157	9.7044	9.0581	8.386	7.8019	7.3269	7.0298	6.5872	6.3325	5.9364	5.6685	5.1905	4.7368	4.5503	4.2358	3.9725	3.8716	3.3511	3.2207	2.8891	2.6614	2.3	1.9531	1.6301	1.3088	1.3058
584	25.741	20.2617	20.8399	20.0763	14.966	10.0017	10.401	17.4004	13.639	9.4773	10.293	11.6419	13.2977	12.9107	12.7116	12.5848	12.0633	12.1805	12.3045	12.0943	12.3698	11.9062	11.545	11.1045	11.2534	11.2378	10.3681	10.0973	9.5831	8.8569	8.2187	7.7301	7.356	6.914	6.4338	6.3441	5.5715	5.3749	5.0446	4.7428	4.4486	4.1439	3.8209	3.691	3.4729	3.2726	2.9263	2.5013	2.2395	1.8948	1.5667	1.1454	0.8829
586	24.929	20.6039	19.9035	17.1629	15.3148	11.4895	12.9797	19.5378	14.1761	8.2276	9.2156	11.9314	12.4209	12.2444	13.0113	12.0217	11.9924	12.1222	11.8239	11.733	11.3833	11.2428	11.0044	10.6676	10.7564	10.7468	10.7025	9.5615	9.0769	8.4857	7.8321	7.429	7.0312	6.6661	6.0443	5.9445	5.775	5.1591	4.8326	4.5599	4.2646	3.9192	3.8881	3.6929	3.2568	3.1915	2.9245	2.6211	2.1756	1.8333	1.5372	0.9762	0.2962
588	19.5974	17.4376	17.9013	20.3897	15.6648	14.2635	15.6341	17.3498	14.324	6.9354	10.3841	10.6335	11.5099	12.1653	11.7816	11.8194	11.4712	11.4606	11.1915	11.1035	11.1225	11.0251	11.0115	10.6553	10.603	10.306	9.9932	9.5871	8.8905	8.1993	7.8581	7.1701	6.9097	6.4871	5.8502	5.9208	5.2469	5.291	4.658	4.345	4.1759	4.0183	3.7236	3.5381	3.2241	3.0616	2.8273	2.3691	2.1083	1.7877	1.5246	0.8011	0
590	21.9189	18.1882	15.1444	16.4318	16.0183	15.2163	14.7699	14.7864	13.6995	8.933	9.1066	9.2929	10.5669	11.1913	11.359	10.9279	11.0117	10.9683	10.9848	11.0791	10.6103	10.8755	10.3452	10.0441	10.274	9.594	9.4239	9.1586	8.4807	7.9675	7.4691	7.0428	6.6498	6.4066	5.999	5.4751	5.1782	5.1421	4.6303	4.2643	4.0269	3.8106	3.557	3.4242	3.2664	2.9604	2.8111	2.5207	2.0382	1.7778	1.4328	0.6205	0
592	23.3241	16.2854	18.3388	18.5431	16.541	12.3604	8.9278	6.0326	12.6537	10.1276	7.8166	8.1488	9.6268	10.9527	11.0789	10.8694	11.0185	10.7337	10.4519	10.6086	10.3172	10.0765	9.5887	9.9764	9.618	10.0179	9.4779	8.9557	8.2064	7.7869	6.9976	6.7796	6.5404	6.1662	5.616	5.5413	5.192	5.0158	4.4336	4.2119	4.0705	3.8628	3.6219	3.3105	3.2113	2.887	2.7569	2.5298	2.1608	1.7733	1.263	0.5679	0
594	24.208	19.5971	15.7943	16.1028	19.9475	14.3315	9.6301	8.1358	15.393	8.7741	6.4756	7.1727	8.6466	10.5678	10.3757	10.5222	10.2273	10.2883	10.4313	10.0972	9.9413	10.0163	9.5286	9.5876	9.5747	9.4932	9.1371	8.6994	7.8993	7.6092	7.2707	6.7349	6.3869	6.0065	5.4118	5.1622	4.9224	4.7176	4.3625	4.1353	3.836	3.6285	3.4516	3.152	3.2005	2.8619	2.5992	2.535	2.2627	1.7675	1.1696	0	0
596	15.3302	15.1372	12.561	16.7813	19.7818	13.9821	11.3891	10.3169	16.4609	11.1835	5.0858	6.1603	8.8767	10.0455	9.665	9.7599	9.9303	9.9346	9.961	9.9196	9.7595	9.691	9.1965	9.3627	9.206	9.0152	8.3761	7.843	7.9176	7.192	6.8835	6.3375	6.0796	5.7312	5.4632	5.1247	4.8222	4.7048	4.3154	4.038	3.7549	3.5432	3.3554	3.2483	2.934	2.7475	2.6518	2.4204	2.1293	1.7611	1.1765	0	0
598	18.9018	17.608	13.7754	15.2809	19.4009	15.4055	13.7261	12.5786	16.1497	10.4097	3.6456	7.0009	8.3165	9.5021	9.7061	10.0552	9.8415	9.5827	9.3267	9.817	9.26	9.5063	9.0649	8.8036	8.6914	9.0735	8.348	7.7569	7.8223	7.268	6.6974	6.2133	5.873	5.5737	5.2979	4.856	4.8653	4.2819	4.236	4.0252	3.6102	3.3803	3.2725	3.1363	2.8736	2.4496	2.543	2.4608	2.0139	1.846	0	0	0
600	20.7143	11.586	11.6543	14.2721	20.4386	17.983	16.1429	14.9179	14.2863	10.2058	5.055	6.4111	7.7309	8.9329	10.1372	9.56	9.4033	9.398	9.6518	9.2465	9.065	9.2413	8.7594	8.593	9.0155	8.5935	8.2869	7.6054	7.3676	6.6968	6.4369	6.1454	5.7464	5.3639	5.0634	4.8755	4.569	4.273	3.9806	3.8421	3.6131	3.3448	3.0987	2.9702	2.9272	2.6529	2.4974	2.3357	2.0415	1.8298	0	0	0
