Description	E1-50																																																				
EEM type	"Dilution- & Scatter-corrected, Calibrated Data (ppb QSE)"																																																				
Scan date	10/1/2013 13:11																																																				
Excitation	240-500nm by 5nm																																																				
Emission	290-600nm by 2nm																																																				
Calibration	Michael_Fluoromax4_April08 (07-Apr-2008)																																																				
Slit settings	"5nm Excitation, 5nm Emission"																																																				
Dilution	5																																																				
Row 1	Excitation(nm)																																																				
Col 1	Emission(nm)																																																				
Data	Fluorescence(ppb QSE)																																																				
																																																					
	240	245	250	255	260	265	270	275	280	285	290	295	300	305	310	315	320	325	330	335	340	345	350	355	360	365	370	375	380	385	390	395	400	405	410	415	420	425	430	435	440	445	450	455	460	465	470	475	480	485	490	495	500
290	8.8744	7.636	6.5926	4.8575	3.3685	2.0735	0.9789	0	0	0	0	0	0	0	0	0	0	0	0	0	0	0	0	0	0	0	0	0	0	0	0	0	0	0	0	0	0	0	0	0	0	0	0	0	0	0	0	0	0	0	0	0	0
292	6.5404	3.2289	6.9991	4.5838	3.1277	1.8624	1.052	0.6021	0	0	0	0	0	0	0	0	0	0	0	0	0	0	0	0	0	0	0	0	0	0	0	0	0	0	0	0	0	0	0	0	0	0	0	0	0	0	0	0	0	0	0	0	0
294	9.3105	7.4574	6.6089	4.3149	2.8913	2.204	1.9002	1.1911	0	0	0	0	0	0	0	0	0	0	0	0	0	0	0	0	0	0	0	0	0	0	0	0	0	0	0	0	0	0	0	0	0	0	0	0	0	0	0	0	0	0	0	0	0
296	11.9408	5.5609	9.6214	4.0454	3.5362	3.0763	2.9376	1.7648	0	0	0	0	0	0	0	0	0	0	0	0	0	0	0	0	0	0	0	0	0	0	0	0	0	0	0	0	0	0	0	0	0	0	0	0	0	0	0	0	0	0	0	0	0
298	15.8953	12.0366	13.4841	9.5864	4.4481	3.921	3.9436	2.3207	0.6822	0	0	0	0	0	0	0	0	0	0	0	0	0	0	0	0	0	0	0	0	0	0	0	0	0	0	0	0	0	0	0	0	0	0	0	0	0	0	0	0	0	0	0	0
300	15.0771	15.8062	13.6234	9.877	5.3334	4.9591	4.6981	2.8604	1.3453	0	0	0	0	0	0	0	0	0	0	0	0	0	0	0	0	0	0	0	0	0	0	0	0	0	0	0	0	0	0	0	0	0	0	0	0	0	0	0	0	0	0	0	0
302	17.8482	17.1697	14.846	9.9367	6.2919	6.0628	5.2947	3.7164	2.0216	0	0	0	0	0	0	0	0	0	0	0	0	0	0	0	0	0	0	0	0	0	0	0	0	0	0	0	0	0	0	0	0	0	0	0	0	0	0	0	0	0	0	0	0
304	25.0229	16.9865	15.8098	10.8348	5.3681	7.1706	5.8933	4.5754	2.7002	0.7935	0	0	0	0	0	0	0	0	0	0	0	0	0	0	0	0	0	0	0	0	0	0	0	0	0	0	0	0	0	0	0	0	0	0	0	0	0	0	0	0	0	0	0
306	22.2387	18.1146	15.7652	13.8749	7.8896	8.2785	6.7771	5.3419	3.3796	1.5891	0	0	0	0	0	0	0	0	0	0	0	0	0	0	0	0	0	0	0	0	0	0	0	0	0	0	0	0	0	0	0	0	0	0	0	0	0	0	0	0	0	0	0
308	23.9554	21.1962	14.6926	12.683	9.3964	9.3847	7.6593	6.0143	4.3594	2.3855	0	0	0	0	0	0	0	0	0	0	0	0	0	0	0	0	0	0	0	0	0	0	0	0	0	0	0	0	0	0	0	0	0	0	0	0	0	0	0	0	0	0	0
310	22.4018	20.8959	21.3871	15.7183	11.1043	9.9286	8.5431	6.6877	5.341	3.1833	0.874	0	0	0	0	0	0	0	0	0	0	0	0	0	0	0	0	0	0	0	0	0	0	0	0	0	0	0	0	0	0	0	0	0	0	0	0	0	0	0	0	0	0
312	24.7874	26.0198	21.0278	15.5768	11.7097	9.0492	9.3714	7.6138	6.1861	3.9583	1.7388	0	0	0	0	0	0	0	0	0	0	0	0	0	0	0	0	0	0	0	0	0	0	0	0	0	0	0	0	0	0	0	0	0	0	0	0	0	0	0	0	0	0
314	25.2686	23.282	22.6649	16.2591	10.4495	10.8819	10.1905	8.5299	6.9227	4.8473	2.5946	0	0	0	0	0	0	0	0	0	0	0	0	0	0	0	0	0	0	0	0	0	0	0	0	0	0	0	0	0	0	0	0	0	0	0	0	0	0	0	0	0	0
316	24.9643	28.5235	27.4433	17.9941	13.5645	10.7371	12.0837	9.4046	7.6258	5.7078	3.4298	0.8536	0	0	0	0	0	0	0	0	0	0	0	0	0	0	0	0	0	0	0	0	0	0	0	0	0	0	0	0	0	0	0	0	0	0	0	0	0	0	0	0	0
318	31.4897	23.0284	24.2286	19.6853	12.9812	11.3705	11.6835	10.2284	8.4049	6.4907	4.236	1.6868	0	0	0	0	0	0	0	0	0	0	0	0	0	0	0	0	0	0	0	0	0	0	0	0	0	0	0	0	0	0	0	0	0	0	0	0	0	0	0	0	0
320	28.1537	29.1555	22.3206	17.5818	13.8669	12.5465	13.085	11.0294	9.1627	7.2134	4.9007	2.4996	0	0	0	0	0	0	0	0	0	0	0	0	0	0	0	0	0	0	0	0	0	0	0	0	0	0	0	0	0	0	0	0	0	0	0	0	0	0	0	0	0
322	26.385	27.2502	19.3793	19.1076	14.3518	11.5721	13.4623	12.1611	9.8534	7.8795	5.5219	3.2766	0.8076	0	0	0	0	0	0	0	0	0	0	0	0	0	0	0	0	0	0	0	0	0	0	0	0	0	0	0	0	0	0	0	0	0	0	0	0	0	0	0	0
324	27.8875	30.422	22.5279	22.4209	14.1134	13.5163	13.0343	11.7865	10.5149	8.4066	6.1579	4.0254	1.5875	0	0	0	0	0	0	0	0	0	0	0	0	0	0	0	0	0	0	0	0	0	0	0	0	0	0	0	0	0	0	0	0	0	0	0	0	0	0	0	0
326	34.4269	29.4205	24.388	17.7753	15.1196	11.8741	14.5146	13.2738	11.1423	8.9064	6.8034	4.652	2.3386	0	0	0	0	0	0	0	0	0	0	0	0	0	0	0	0	0	0	0	0	0	0	0	0	0	0	0	0	0	0	0	0	0	0	0	0	0	0	0	0
328	30.1259	24.1134	25.343	20.4982	15.9469	15.5668	14.1446	13.6983	11.3678	9.378	7.4179	5.2507	3.0598	0.8497	0	0	0	0	0	0	0	0	0	0	0	0	0	0	0	0	0	0	0	0	0	0	0	0	0	0	0	0	0	0	0	0	0	0	0	0	0	0	0
330	31.8911	29.8273	24.772	19.6392	16.6559	13.906	13.6866	13.4202	12.4676	9.8251	7.9193	5.8527	3.7519	1.6671	0	0	0	0	0	0	0	0	0	0	0	0	0	0	0	0	0	0	0	0	0	0	0	0	0	0	0	0	0	0	0	0	0	0	0	0	0	0	0
332	32.9644	31.046	26.9797	23.0995	15.9911	15.4808	14.654	14.9318	14.075	10.1377	8.3056	6.387	4.5975	2.4259	0	0	0	0	0	0	0	0	0	0	0	0	0	0	0	0	0	0	0	0	0	0	0	0	0	0	0	0	0	0	0	0	0	0	0	0	0	0	0
334	32.923	30.9925	26.8139	19.7305	17.2775	14.3581	13.7598	13.7642	12.6885	11.3383	8.6531	6.8773	5.384	3.1347	0.9147	0	0	0	0	0	0	0	0	0	0	0	0	0	0	0	0	0	0	0	0	0	0	0	0	0	0	0	0	0	0	0	0	0	0	0	0	0	0
336	28.0948	32.5382	24.806	21.5137	16.6657	15.5315	14.2881	13.9078	13.026	12.088	8.971	7.5419	6.0454	3.7974	1.7729	0	0	0	0	0	0	0	0	0	0	0	0	0	0	0	0	0	0	0	0	0	0	0	0	0	0	0	0	0	0	0	0	0	0	0	0	0	0
338	30.4317	29.3352	24.5348	21.7042	17.9012	14.7262	14.7631	14.0393	14.1741	12.9128	9.261	8.1589	6.591	4.7758	2.5774	0	0	0	0	0	0	0	0	0	0	0	0	0	0	0	0	0	0	0	0	0	0	0	0	0	0	0	0	0	0	0	0	0	0	0	0	0	0
340	32.0347	30.3676	24.6287	21.9786	18.1239	15.6841	14.7426	13.6503	13.8033	12.3231	10.2227	8.7216	7.0898	5.6845	3.3272	1.0725	0	0	0	0	0	0	0	0	0	0	0	0	0	0	0	0	0	0	0	0	0	0	0	0	0	0	0	0	0	0	0	0	0	0	0	0	0
342	33.0114	30.4907	27.3876	22.2285	18.6481	16.2079	15.4448	14.3247	14.0456	12.9915	11.1205	9.2804	7.9201	6.4461	4.0441	2.0858	0	0	0	0	0	0	0	0	0	0	0	0	0	0	0	0	0	0	0	0	0	0	0	0	0	0	0	0	0	0	0	0	0	0	0	0	0
344	28.8795	31.8753	26.0204	21.8463	19.3585	17.5041	16.0416	14.7697	14.6387	14.0776	12.0202	9.7934	8.6919	7.0456	5.1041	3.0401	0.7064	0	0	0	0	0	0	0	0	0	0	0	0	0	0	0	0	0	0	0	0	0	0	0	0	0	0	0	0	0	0	0	0	0	0	0	0
346	30.9762	30.8083	29.0549	20.7403	19.9611	16.7396	15.7362	14.2139	14.2306	14.0982	12.4694	10.7648	9.4299	7.6191	6.1115	3.9453	1.7624	0	0	0	0	0	0	0	0	0	0	0	0	0	0	0	0	0	0	0	0	0	0	0	0	0	0	0	0	0	0	0	0	0	0	0	0
348	36.6692	33.7518	29.6399	23.426	20.5877	17.5215	16.549	16.166	15.1056	14.8419	13.6597	11.9617	10.1418	8.5408	6.9965	4.8094	2.767	1.2762	0	0	0	0	0	0	0	0	0	0	0	0	0	0	0	0	0	0	0	0	0	0	0	0	0	0	0	0	0	0	0	0	0	0	0
350	36.5265	36.6113	29.059	25.528	19.9407	18.3696	17.7772	15.7698	16.4446	14.95	14.3196	13.1419	10.8052	9.4059	7.752	5.7083	3.7183	1.9846	0.4853	0	0	0	0	0	0	0	0	0	0	0	0	0	0	0	0	0	0	0	0	0	0	0	0	0	0	0	0	0	0	0	0	0	0
352	38.4544	34.5317	30.7103	24.3938	21.5896	18.7216	17.7839	17.2412	16.8913	16.3266	14.9128	14.1301	12.0987	10.2163	8.4603	6.5551	4.6172	2.6795	1.4894	0	0	0	0	0	0	0	0	0	0	0	0	0	0	0	0	0	0	0	0	0	0	0	0	0	0	0	0	0	0	0	0	0	0
354	39.053	37.715	31.9263	26.3924	21.9943	19.5366	18.617	17.9177	17.484	16.3357	15.7133	14.1617	13.3119	10.9703	9.1991	7.3487	5.8002	4.0973	2.378	0.5796	0	0	0	0	0	0	0	0	0	0	0	0	0	0	0	0	0	0	0	0	0	0	0	0	0	0	0	0	0	0	0	0	0
356	38.3277	36.1372	33.6022	25.7324	24.4506	20.9846	19.2833	19.0469	18.1108	17.6937	16.4851	16.0669	14.1946	11.708	10.247	8.7756	7.2393	5.4527	3.6695	1.3889	0	0	0	0	0	0	0	0	0	0	0	0	0	0	0	0	0	0	0	0	0	0	0	0	0	0	0	0	0	0	0	0	0
358	42.7078	39.3643	33.743	27.6156	24.406	21.2098	20.3001	19.4732	18.8174	18.0357	17.2076	16.8425	15.3441	13.3838	11.5931	10.1594	8.5808	6.7604	4.8334	2.7161	1.2274	0	0	0	0	0	0	0	0	0	0	0	0	0	0	0	0	0	0	0	0	0	0	0	0	0	0	0	0	0	0	0	0
360	44.6346	39.3254	34.8284	28.9958	24.7856	21.5034	22.0423	20.7701	20.2051	18.7325	18.25	17.8751	16.8838	15.0352	12.8716	11.426	9.8577	8.0067	6.0871	3.9306	1.8463	0	0	0	0	0	0	0	0	0	0	0	0	0	0	0	0	0	0	0	0	0	0	0	0	0	0	0	0	0	0	0	0
362	49.0834	41.5318	35.3252	29.9238	25.9354	23.1634	21.6604	20.519	21.3053	20.2418	19.4046	19.0689	18.3766	16.2657	14.1819	12.6917	11.0774	9.3281	7.3322	4.6154	2.8264	0.7034	0	0	0	0	0	0	0	0	0	0	0	0	0	0	0	0	0	0	0	0	0	0	0	0	0	0	0	0	0	0	0
364	53.8056	43.0869	39.3059	32.3094	28.8554	24.8653	24.6175	22.0677	22.0054	21.4759	21.1322	19.933	19.101	17.7817	15.759	13.9129	12.2547	10.7467	8.5359	6.097	3.6978	1.9603	0	0	0	0	0	0	0	0	0	0	0	0	0	0	0	0	0	0	0	0	0	0	0	0	0	0	0	0	0	0	0
366	55.3465	45.7902	40.6849	34.6819	29.7816	25.8982	24.2098	24.4685	23.8942	22.2887	21.8044	21.7511	20.3448	19.3421	17.0389	15.1019	13.5402	12.1264	9.7063	7.2968	4.971	2.4917	0.9187	0	0	0	0	0	0	0	0	0	0	0	0	0	0	0	0	0	0	0	0	0	0	0	0	0	0	0	0	0	0
368	52.3266	49.6962	43.292	38.3708	31.1408	27.9668	26.936	24.1442	23.9997	23.5707	23.2877	23.5526	22.2736	20.4865	18.8075	16.2622	14.8624	13.2381	10.8471	8.4647	6.0808	3.4861	1.6767	0	0	0	0	0	0	0	0	0	0	0	0	0	0	0	0	0	0	0	0	0	0	0	0	0	0	0	0	0	0
370	58.9802	55.9621	44.1777	38.177	33.0919	29.2184	28.1945	26.6333	26.2551	25.0369	25.1707	24.0664	24.1888	22.0141	20.9583	18.2465	16.1405	14.3123	11.9519	9.5956	7.233	4.4492	2.3463	0.1578	0	0	0	0	0	0	0	0	0	0	0	0	0	0	0	0	0	0	0	0	0	0	0	0	0	0	0	0	0
372	61.3946	58.4812	47.2027	41.3202	35.7625	30.443	28.875	27.229	27.0624	26.5369	26.3893	26.1799	25.7496	24.1376	22.3167	20.2051	17.464	15.4293	13.0863	11.1023	8.5333	5.174	3.2515	1.4915	0	0	0	0	0	0	0	0	0	0	0	0	0	0	0	0	0	0	0	0	0	0	0	0	0	0	0	0	0
374	65.7622	59.5922	52.4764	45.7444	38.8439	33.6617	30.871	29.6782	27.4389	28.4607	27.715	27.7418	27.9106	26.1992	24.1005	22.0382	18.7585	16.8812	14.9106	12.9326	9.8068	6.8578	4.1261	2.2102	0.0024	0	0	0	0	0	0	0	0	0	0	0	0	0	0	0	0	0	0	0	0	0	0	0	0	0	0	0	0
376	68.3674	60.987	51.752	45.5114	39.3321	34.4525	31.7506	30.6417	29.551	30.0587	29.9649	29.9711	29.2316	27.9368	26.2162	23.5667	20.7739	18.6412	16.6823	14.1494	11.044	7.973	5.0461	2.8777	0.6969	0	0	0	0	0	0	0	0	0	0	0	0	0	0	0	0	0	0	0	0	0	0	0	0	0	0	0	0
378	70.7441	63.4666	55.6308	48.7838	41.6707	38.0063	34.228	32.6592	31.7237	31.5115	30.6858	31.7264	31.3904	30.3327	28.0607	26.3079	22.9079	20.3415	18.3963	15.3231	12.2413	9.3537	6.3534	3.6962	1.8043	0	0	0	0	0	0	0	0	0	0	0	0	0	0	0	0	0	0	0	0	0	0	0	0	0	0	0	0
380	74.7608	64.198	56.1971	52.7938	45.3979	40.2824	35.5926	34.8227	33.3469	33.0959	32.3442	32.9258	33.5073	32.6248	30.4532	27.9546	24.7445	21.9966	19.5109	16.4666	13.407	10.6995	7.4997	4.666	2.6432	0.6566	0	0	0	0	0	0	0	0	0	0	0	0	0	0	0	0	0	0	0	0	0	0	0	0	0	0	0
382	78.4029	69.1157	62.6183	50.6372	46.5302	41.7104	38.1699	34.9027	35.1961	34.1578	35.7891	35.4114	35.0689	34.3782	32.9595	30.2643	26.9334	23.7143	20.6873	17.6601	14.9421	12.0652	8.9479	5.543	3.0412	1.5576	0	0	0	0	0	0	0	0	0	0	0	0	0	0	0	0	0	0	0	0	0	0	0	0	0	0	0
384	82.6751	77.0694	66.7189	55.745	47.3937	41.8718	39.3571	37.3323	37.2126	36.5528	36.3639	37.1699	37.0575	36.0892	35.2132	31.4974	28.7314	24.8836	21.8436	18.8335	16.4527	13.409	10.0914	6.7327	4.1492	2.2347	0.0612	0	0	0	0	0	0	0	0	0	0	0	0	0	0	0	0	0	0	0	0	0	0	0	0	0	0
386	82.5424	76.5932	66.2755	59.0129	50.6782	45.7069	40.9885	39.1273	37.4707	37.5248	38.3243	39.0154	38.7956	38.1818	36.1106	34.6706	30.3543	27.3755	23.0658	20.3969	17.9245	14.7861	11.2583	8.1565	5.2365	3.1976	0.945	0	0	0	0	0	0	0	0	0	0	0	0	0	0	0	0	0	0	0	0	0	0	0	0	0	0
388	85.6207	76.6198	70.211	62.3043	55.1534	47.3839	42.8161	40.6754	38.9845	40.2117	39.4866	40.7451	41.0054	40.112	38.3374	36.1796	32.5683	28.9568	24.3686	22.0299	19.3758	16.0242	12.4621	9.1115	6.1999	3.9162	1.8783	0	0	0	0	0	0	0	0	0	0	0	0	0	0	0	0	0	0	0	0	0	0	0	0	0	0
390	88.9531	80.5671	74.8444	64.5789	55.8211	50.9378	45.0068	42.7453	40.8746	40.8329	41.6894	43.1147	43.1434	42.3213	41.2983	37.6378	34.8555	31.2556	26.6966	23.6626	20.8266	17.2617	13.6653	10.3069	7.4446	4.6626	2.5755	0.7393	0	0	0	0	0	0	0	0	0	0	0	0	0	0	0	0	0	0	0	0	0	0	0	0	0
392	97.5926	88.4227	74.5494	66.3632	59.4826	50.7326	47.0544	43.4557	42.1197	42.5769	43.3018	44.3049	44.7472	44.4866	42.6679	39.6203	36.4919	33.1276	28.8852	25.1433	21.9528	18.388	15.0092	11.619	8.4882	5.5888	3.4798	1.5104	0	0	0	0	0	0	0	0	0	0	0	0	0	0	0	0	0	0	0	0	0	0	0	0	0
394	104.9555	88.1532	78.2768	69.2657	61.2182	53.5162	47.6872	45.5614	44.0464	42.6691	44.842	46.456	46.4616	46.2984	44.6192	42.179	38.4141	34.8841	30.8589	26.6037	23.3032	19.97	16.5085	12.914	9.7842	6.7352	4.3564	2.4158	0.3265	0	0	0	0	0	0	0	0	0	0	0	0	0	0	0	0	0	0	0	0	0	0	0	0
396	100.4049	93.5041	82.5291	71.744	62.0157	55.0654	50.0021	47.5839	44.3867	45.2672	46.0279	47.634	48.6708	48.4146	47.0899	43.6969	40.8675	36.4877	32.797	28.4691	24.9124	21.5644	17.9051	14.2138	10.7303	8.125	5.2462	3.12	1.0869	0	0	0	0	0	0	0	0	0	0	0	0	0	0	0	0	0	0	0	0	0	0	0	0
398	103.1533	95.8452	87.3449	75.5902	65.0149	57.2975	52.6233	49.7024	47.0516	46.8957	47.891	50.146	51.2282	50.9213	48.9533	46.2095	43.329	39.5135	35.2041	30.8897	26.5469	23.0654	19.318	15.5249	12.1807	9.1091	6.3121	3.8168	2.1978	0	0	0	0	0	0	0	0	0	0	0	0	0	0	0	0	0	0	0	0	0	0	0	0
400	108.3418	99.4836	90.0752	79.7138	68.8047	60.8302	53.9599	50.8261	48.9089	49.2274	49.5439	51.5001	51.9743	52.631	51.8493	48.6683	45.157	41.5329	36.6381	33.1809	28.1706	24.4998	20.6412	16.9069	13.6216	10.4545	7.4681	4.5691	2.9518	0.9219	0	0	0	0	0	0	0	0	0	0	0	0	0	0	0	0	0	0	0	0	0	0	0
402	114.142	107.6314	92.3334	80.9006	72.0081	63.0407	56.5347	51.0881	49.5458	49.2939	51.2706	53.8473	54.9176	54.6729	53.506	51.1686	47.8623	43.5931	39.2856	35.1237	30.2519	25.88	21.9177	18.407	15.0273	11.736	8.7286	5.6675	3.5748	1.7922	0	0	0	0	0	0	0	0	0	0	0	0	0	0	0	0	0	0	0	0	0	0	0
404	114.7839	108.5499	94.7723	83.9528	74.4704	66.7992	58.7643	53.5784	51.9539	50.3453	54.4422	55.7429	56.3442	57.112	55.9574	53.6659	50.4368	45.3504	41.6772	37.2847	32.3962	27.2453	23.3423	19.8915	16.4184	12.9496	9.7219	6.7443	4.1572	2.7207	0.3885	0	0	0	0	0	0	0	0	0	0	0	0	0	0	0	0	0	0	0	0	0	0
406	121.637	105.9918	96.9102	87.9645	76.1958	68.0559	60.4422	57.0349	53.085	53.3485	53.1925	56.725	58.3844	58.0909	57.8562	55.6103	51.4912	47.6513	43.5439	38.7382	34.326	28.6493	24.8788	21.3094	17.7658	14.1769	10.9585	7.7742	5.0731	3.3485	1.1246	0	0	0	0	0	0	0	0	0	0	0	0	0	0	0	0	0	0	0	0	0	0
408	126.4613	114.2988	102.5306	92.839	80.9626	71.2608	63.0519	57.9519	55.3393	54.9091	56.2588	57.8065	60.6228	61.2439	59.8994	57.4481	53.4414	50.2396	46.2898	41.1622	35.9895	31.7561	26.455	22.7608	19.0154	15.4252	11.9311	8.754	6.0119	3.9933	2.0491	0	0	0	0	0	0	0	0	0	0	0	0	0	0	0	0	0	0	0	0	0	0
410	127.9055	117.8576	105.4435	94.5232	84.3163	72.2933	65.5251	59.2752	57.4532	56.1459	58.4819	60.6375	62.2122	63.1739	62.6358	60.6109	55.8253	52.6283	47.7211	43.2974	38.1258	33.9039	28.0273	24.082	20.2617	16.7961	13.2155	10.1413	6.987	4.4689	2.8422	0.878	0	0	0	0	0	0	0	0	0	0	0	0	0	0	0	0	0	0	0	0	0
412	137.6231	122.2361	107.2924	94.5499	84.8616	77.1724	68.0706	62.1155	59.7545	57.4454	58.6121	61.6704	62.655	65.0727	63.6026	62.8193	58.6953	54.5525	49.8572	45.6595	40.8392	35.9364	29.5981	25.4666	21.7591	18.2906	14.4976	11.3155	8.1571	5.4014	3.6671	1.8169	0	0.0002	0.0002	0	0	0	0	0	0	0	0	0	0	0	0	0	0	0	0	0	0
414	134.7478	121.3268	105.0809	97.9855	88.1523	76.1058	68.016	62.6913	60.389	58.9865	60.7289	63.3496	65.14	65.9849	66.1968	64.1187	60.5159	56.8764	51.815	47.741	42.9097	37.1913	31.7551	26.9761	23.2531	19.5642	15.7767	11.9716	8.8044	6.003	4.2152	2.4896	0.3706	0.0005	0.0004	0	0	0	0	0	0	0	0	0	0	0	0	0	0	0	0	0	0
416	143.7795	127.7225	111.8315	100.7068	91.9597	79.8132	70.8726	65.1071	60.5942	61.1676	60.9766	64.1577	66.0464	67.1729	67.9359	66.0528	62.5856	58.8061	54.5679	50.2004	44.5929	39.4287	34.1335	28.547	24.8	20.8822	17.0915	13.3261	9.7853	7.3026	5.0547	3.0919	1.3822	0.0008	0.0006	0	0	0	0	0	0	0	0	0	0	0	0	0	0	0	0	0	0
418	143.0327	133.4882	116.0704	103.696	93.9928	81.3086	73.899	66.8382	63.0547	61.3576	62.9044	64.4558	68.3631	69.474	69.354	67.2973	65.2498	61.2032	57.2963	52.0405	46.2299	41.7655	36.0556	30.1901	26.1907	22.2535	18.524	14.6157	11.1074	8.111	5.6224	3.7905	2.0562	0.0012	0.0004	0	0	0	0	0	0	0	0	0	0	0	0	0	0	0	0	0	0
420	152.163	135.9299	117.1363	107.436	96.6481	85.1391	75.2319	67.7181	65.5138	63.163	64.1477	66.5222	68.758	70.2889	70.6305	69.6597	66.5061	63.285	58.9626	54.8908	48.9012	43.2927	37.9776	31.844	27.6641	23.7803	19.948	15.9138	12.3255	9.1034	6.4807	4.3623	2.8724	0.837	0.0002	0	0	0	0	0	0	0	0	0	0	0	0	0	0	0	0	0	0
422	146.4939	137.378	119.5389	109.504	96.1596	86.5157	78.6564	70.0671	66.7479	64.7953	65.2221	67.0033	70.2311	71.9484	72.5359	71.2664	68.6896	65.2455	61.1713	56.9183	50.9929	45.2974	39.9323	34.268	29.2281	25.3234	21.203	17.2243	13.2662	10.2265	7.5011	4.8557	3.5243	1.8124	0	0.0336	0.0394	0	0	0	0	0	0	0	0	0	0	0	0	0	0	0	0
424	154.068	132.4365	122.0987	112.0063	102.1818	88.882	79.7523	70.6544	66.4828	66.1081	67.5582	69.1305	71.1894	73.663	74.0558	72.8498	70.8719	66.8139	62.9599	58.1768	52.692	46.6742	41.8674	35.9913	30.803	26.693	22.4665	18.5438	14.3574	11.0285	8.1663	5.677	4.0008	2.3801	0.5218	0.1012	0.079	0	0	0	0	0	0	0	0	0	0	0	0	0	0	0	0
426	151.6018	142.1866	123.9587	114.4099	102.2688	91.8152	80.0448	74.2157	67.7321	66.6548	66.6005	69.7447	72.8093	73.4491	74.5847	74.2946	72.6045	68.7975	64.9395	60.4245	54.4373	49.4249	43.6802	37.759	32.4413	28.0248	23.8439	19.7402	15.4809	12.2261	9.0515	6.4722	4.5659	3.0579	1.3435	0.1694	0.1191	0	0	0	0	0	0	0	0	0	0	0	0	0	0	0	0
428	154.0758	140.5414	129.3512	118.4706	102.886	93.8844	82.5877	73.9306	69.2732	68.6107	68.3191	70.0458	72.5157	74.663	75.6272	76.2137	73.7099	71.2004	66.9066	61.7843	57.169	51.2101	45.0465	39.7005	34.3297	29.4163	25.2751	20.6508	16.642	12.9773	10.1811	7.4662	5.4095	3.5616	1.9939	0.2387	0.0799	0	0	0	0	0	0	0	0	0	0	0	0	0	0	0	0
430	162.6207	145.0103	126.6927	118.0958	105.5954	95.7964	82.4553	76.2067	70.6898	68.2921	69.4238	70.5764	74.5105	76.3915	76.698	76.4564	74.9656	72.9548	68.4569	65.0146	58.9335	53.0566	47.1462	41.1932	35.8738	30.8244	26.3909	21.5719	17.8173	14.0567	10.9381	8.2928	6.17	4.1263	2.5819	0.8936	0.0402	0	0	0	0	0	0	0	0	0	0	0	0	0	0	0	0
432	151.7752	145.0017	128.3709	121.1771	109.2098	98.3417	85.4451	75.7179	73.0359	68.913	69.8715	72.2549	74.6443	76.541	78.1087	78.0177	75.6758	74.1034	70.3541	65.4824	60.6641	54.6811	48.2351	42.7624	37.3496	32.2134	27.3219	22.76	18.9596	15.1326	11.8108	8.8809	6.7656	4.7806	3.3533	1.7586	0	0.0513	0.06	0	0	0	0	0	0	0	0	0	0	0	0	0	0
434	157.3149	148.323	136.1289	122.7846	108.9249	97.3877	89.5599	78.3469	72.9321	69.9123	70.6645	71.1178	75.368	76.9248	78.4998	79.6479	76.9962	75.8699	72.0279	67.1338	62.0222	56.3095	49.9927	43.9452	38.8396	33.8722	28.2617	23.96	20.0604	16.2196	12.6227	9.5276	7.3155	5.4037	3.9643	2.5173	0.6207	0.1548	0.1206	0	0	0	0	0	0	0	0	0	0	0	0	0	0
436	165.5917	154.3129	134.0548	119.9585	112.9759	100.1239	88.9808	80.3274	74.161	70.9459	71.2535	73.3765	74.6953	77.1693	79.1139	80.0627	78.8485	77.2165	72.6917	69.0231	63.6489	58.0071	51.4823	45.6255	40.7336	35.3816	29.2478	25.1509	21.1994	17.3399	13.4071	10.3806	8.054	5.7378	4.3713	2.9082	1.382	0.2596	0.182	0	0	0	0	0	0	0	0	0	0	0	0	0	0
438	167.4679	150.0087	141.386	127.5604	116.1062	102.5059	91.0553	82.4399	75.4662	71.918	72.0534	73.2356	74.9298	77.8935	80.3514	80.0424	79.9751	77.5597	74.4823	70.8886	65.4609	59.0765	52.8318	47.2499	41.6168	36.1665	30.2834	26.2914	22.2384	18.283	14.2988	11.2512	8.857	6.6785	4.8572	3.2866	1.8361	0.3663	0.1223	0	0	0	0	0	0	0	0	0	0	0	0	0	0
440	166.7397	150.7331	136.3394	124.951	113.8144	101.7453	92.4386	82.4586	76.9884	71.3056	70.4436	74.877	76.6413	79.0392	79.9902	80.8258	81.1769	78.5893	76.0321	72.0538	66.96	61.274	54.286	48.4116	43.0697	37.5167	32.1671	27.2323	23.1482	19.0435	15.2031	12.1752	9.6252	7.4128	5.4763	3.8197	2.4658	0.8514	0.0616	0	0	0	0	0	0	0	0	0	0	0	0	0	0
442	162.1883	154.7475	142.1819	128.6661	116.0197	102.7735	90.435	82.9778	76.8945	73.3553	72.6648	74.5036	76.8233	79.3689	81.3801	82.7253	81.9068	79.4859	76.8032	73.0765	67.837	61.5953	54.8105	48.4865	44.2098	39.1776	33.0012	28.1632	24.051	19.55	16.1073	12.9532	10.1759	7.818	5.8878	4.4682	3.0011	1.7214	0	0.0295	0.0341	0	0	0	0	0	0	0	0	0	0	0	0
444	164.7088	151.5701	139.6034	128.7888	116.7023	104.9345	94.4633	83.6264	77.5439	72.0319	72.0854	75.0804	75.3261	79.9233	80.587	82.7405	81.1638	80.1425	77.8848	73.6797	69.1839	63.1187	56.3583	50.5383	45.3732	40.2498	35.1605	29.1046	24.7156	20.0618	17.0227	13.6644	10.9799	8.5978	6.4731	4.9098	3.5358	2.1146	0.5884	0.089	0.0687	0	0	0	0	0	0	0	0	0	0	0	0
446	164.9236	153.6752	141.3124	127.9938	119.4409	105.9945	94.263	83.7022	77.3597	72.9461	73.2674	73.5024	77.5071	78.8028	80.928	81.8884	81.402	81.0372	79.5165	74.5415	69.4212	63.9593	57.7264	51.7445	46.1447	41.4089	36.288	30.076	25.2784	21.0183	17.8016	14.3936	11.6889	9.2807	7.4763	5.1471	4.0931	2.6523	1.2866	0.1494	0.1037	0	0	0	0	0	0	0	0	0	0	0	0
448	173.527	155.1711	138.1687	131.8206	118.2417	106.3703	95.3611	85.8899	78.0687	74.2394	72.9767	74.2068	75.5927	78.5111	80.9681	81.0095	82.1954	81.5239	78.7312	75.2494	71.3268	65.1228	58.7081	52.3483	47.3487	42.1646	37.3099	31.5038	25.8635	22.0013	18.2808	15.1419	12.4697	9.9779	8.0255	6.0257	4.439	3.3775	1.8713	0.2108	0.0697	0	0	0	0	0	0	0	0	0	0	0	0
450	165.7325	152.6032	141.1829	131.4773	118.6126	105.037	96.6555	85.8772	79.2898	74.2814	73.2909	75.3696	74.968	78.6225	79.9292	82.6163	82.3753	81.3962	79.4101	76.1525	70.9004	65.3458	59.6908	52.9662	47.6007	43.4121	37.6594	32.2125	26.4548	22.675	18.7653	15.9005	13.212	10.5592	8.8376	6.6108	4.7913	3.6526	2.4543	1.0846	0.0351	0	0	0	0	0	0	0	0	0	0	0	0
452	170.198	155.718	143.6051	130.6278	116.4902	109.2529	97.7748	87.5307	79.4065	74.254	73.5531	74.2721	77.1405	77.7041	80.0904	80.4841	82.3967	81.8347	80.5398	75.8309	71.6407	66.6151	59.942	53.8417	48.7001	43.3488	38.8287	33.1806	27.0648	23.2048	19.5668	16.6761	13.9711	11.6295	9.2297	7.2254	5.6208	4.0266	2.9984	1.5451	0	0.056	0.0657	0	0	0	0	0	0	0	0	0	0
454	166.1538	152.2578	138.3796	130.8636	118.8515	106.7124	96.4529	85.814	78.8795	74.8834	72.1615	73.4791	75.8433	77.2816	79.6881	81.8377	82.9798	81.2759	79.4379	76.4657	71.9848	66.6863	60.7068	54.7738	49.6641	44.5915	39.5885	33.9084	28.2299	23.7404	20.3791	17.4608	14.7411	12.1947	9.8265	7.8016	6.0233	4.6064	3.4635	2.0655	0.9656	0.1695	0.1326	0	0	0	0	0	0	0	0	0	0
456	165.1542	151.0856	139.5198	128.0349	120.3376	108.9269	98.3855	87.9484	79.6853	73.6228	73.7127	73.8671	73.6726	76.9798	79.7201	80.987	81.9924	81.0259	80.0342	77.2499	72.8513	67.2573	61.613	54.8748	50.025	45.6104	39.6427	34.2727	29.5501	24.3193	21.2333	18.2844	15.5461	12.6212	10.3813	8.2689	6.3999	4.8903	3.7818	2.3954	1.1317	0.2852	0.2008	0	0	0	0	0	0	0	0	0	0
458	163.0496	148.8938	141.8091	129.8633	120.2908	109.099	99.2655	87.0316	79.4078	74.0991	72.8722	73.441	74.8256	75.7597	79.4633	81.2934	81.7114	81.8559	80.148	77.4847	73.5444	66.8917	61.8766	56.0365	51.0262	46.2196	40.8748	35.3187	30.1815	24.9431	21.9977	18.8796	15.9784	13.1024	11.1255	8.5234	7.1238	5.3968	3.9773	2.9958	1.8176	0.4037	0.1353	0	0	0	0	0	0	0	0	0	0
460	159.9972	146.5559	138.531	130.4773	121.4141	108.5346	99.025	87.3645	80.3691	75.2962	73.0668	72.6916	75.0977	75.0567	77.8805	80.2483	81.668	82.3768	79.1667	76.6913	73.8472	67.6488	61.84	56.5633	51.4337	46.5739	41.4518	35.774	30.4686	26.1702	22.363	19.2101	16.2626	13.5913	11.5927	9.2568	7.6353	5.8001	4.3512	3.1247	2.0321	1.0311	0.0684	0	0	0	0	0	0	0	0	0	0
462	157.1175	149.0289	135.6116	127.16	122.0884	107.4816	99.3243	88.0631	79.736	75.1272	71.8015	72.828	74.1406	76.7976	77.8797	79.9224	80.6683	80.8973	79.2219	77.6725	72.9579	68.3411	62.2735	56.5337	51.9202	46.8014	41.6248	36.4852	31.5283	27.2263	22.7561	19.5648	16.5359	14.1031	11.9639	9.8702	7.8778	6.4888	4.8305	3.7738	2.7065	1.42	0	0.0117	0.0138	0	0	0	0	0	0	0	0
464	158.0751	150.887	135.2826	127.111	119.079	109.6558	97.615	86.3116	80.3231	74.9527	72.4427	72.7549	74.4277	76.0057	77.7191	78.6004	80.1843	80.3392	79.7433	76.522	72.896	67.76	62.6109	56.9334	51.6569	47.7627	42.456	37.0661	32.14	27.5228	23.1522	19.891	16.811	14.6234	12.3403	10.6273	8.7526	6.9723	5.1709	4.0199	2.9292	1.7625	0.6286	0.0356	0.028	0	0	0	0	0	0	0	0
466	154.7762	141.2522	138.9936	125.5282	120.1865	107.9443	99.0491	88.3593	78.7647	75.6624	72.0677	72.3952	71.9743	73.8849	76.5991	78.3656	79.5696	79.5265	78.8565	76.0742	73.22	68.2156	62.2613	56.3319	52.5938	47.5785	42.3504	37.3855	32.5337	27.9158	23.5586	20.2098	17.3697	15.0359	12.7261	11.1305	9.0775	7.4519	5.7701	4.4578	3.1146	2.3738	1.0415	0.0601	0.0425	0	0	0	0	0	0	0	0
468	151.4061	147.5392	136.672	129.1252	118.7059	107.385	98.24	87.4474	80.5058	74.8196	72.2603	72.6088	71.9651	73.2331	74.798	77.6698	77.998	78.4986	78.2307	75.3816	71.7612	67.7025	62.6058	56.6906	52.2384	48.408	42.9337	38.159	33.2984	28.5883	24.2941	20.5367	17.9424	15.2142	13.1217	11.2332	9.6172	7.7358	6.0817	4.7224	3.7374	2.5973	1.473	0.0852	0.0287	0	0	0	0	0	0	0	0
470	147.9143	148.3505	132.3321	124.7382	116.3413	108.931	98.8294	86.5875	79.8597	74.297	70.391	71.1034	71.8223	72.9809	74.5808	76.0363	76.8901	76.8003	76.8684	75.1983	71.3307	66.8499	62.4686	56.7404	52.3811	48.0003	43.0208	38.1761	33.1304	29.3949	25.0177	20.8656	18.2771	15.3923	13.5231	11.5869	9.8563	8.2307	6.6372	4.9046	3.7737	2.9306	1.9317	0.7956	0.0145	0	0	0	0	0	0	0	0
472	144.6576	141.718	133.2358	129.8386	117.3097	110.4048	97.291	87.284	80.2387	73.6291	70.7761	71.2678	70.6795	71.4287	73.4409	76.5284	76.7056	76.6921	76.3387	74.9598	71.8311	66.3845	61.8717	56.5499	52.4155	48.5209	43.1779	38.2681	33.4748	29.6375	24.9671	21.247	18.5338	15.8578	13.9545	11.9742	10.3467	8.6171	6.9741	5.637	4.0939	3.2174	2.3139	1.1705	0	0.0356	0.0421	0	0	0	0	0	0
474	141.2536	134.7663	132.7931	126.3739	116.8855	106.9582	94.5063	87.5482	79.0199	73.3254	70.1862	69.5543	69.4547	70.2719	73.4592	74.9261	75.095	76.2765	75.2195	73.9601	70.1667	66.2771	61.0399	55.9178	52.3241	48.4468	43.2759	38.4288	34.0855	29.56	25.3487	21.5866	18.7903	16.3304	14.3749	12.3677	10.5204	8.7762	7.3109	5.884	4.3497	3.5147	2.5281	1.4903	0.4952	0.1082	0.0855	0	0	0	0	0	0
476	137.5729	132.2079	133.7701	122.6787	117.3528	104.8456	95.2563	86.3807	79.1998	72.5973	69.6974	67.9904	69.6897	71.0772	71.6173	73.4242	74.3132	74.5997	74.1864	72.2327	70.2371	65.6191	60.7371	55.8038	52.3164	47.771	42.9864	38.7865	34.3362	29.5414	26.2545	22.3864	19.0293	16.7765	14.788	12.756	10.6664	9.3365	7.5543	6.3553	4.762	3.7965	2.812	1.9061	1.0728	0.1826	0.1298	0.0196	0	0	0	0	0
478	133.6325	129.4208	128.9488	123.3196	112.5733	105.071	95.7898	85.6647	78.2648	71.7482	70.0444	67.5512	66.9273	68.6235	70.4369	71.5986	72.1765	72.4187	72.4272	71.717	68.9984	64.8618	59.4901	55.0445	51.4082	47.3334	43.4401	38.1706	33.9802	29.9712	26.6172	22.7168	19.2507	17.1441	15.0725	12.9561	10.977	9.8839	8.2185	6.3937	5.0899	4.0074	3.0263	2.2546	1.3662	0.2587	0.1337	0.0397	0	0	0	0	0
480	129.5687	126.5345	127.0123	122.5051	112.395	104.2982	96.0341	84.7075	76.7722	72.0299	67.887	66.869	67.0138	67.8011	68.5215	70.6285	71.4575	72.233	71.2927	69.5068	67.5828	63.9334	59.4884	54.3515	50.5606	47.0835	43.1556	38.9695	33.6753	30.4106	26.3681	23.3694	19.9389	17.3338	15.2375	13.1076	11.292	9.7367	8.3639	6.88	5.4649	4.2283	3.5469	2.7974	1.8592	0.7387	0.1375	0.0602	0	0	0	0	0
482	125.115	123.2859	125.3533	117.1771	108.9959	102.0679	96.0069	84.248	77.385	72.5669	67.9478	66.7465	65.4587	65.9733	67.2287	69.1687	69.7618	70.8094	70.3515	69.118	67.0272	63.8036	58.7201	54.4751	50.8022	46.8401	43.3346	38.766	33.9348	30.3046	26.5362	23.2396	20.001	17.4869	15.3704	13.2551	11.5873	10.0774	8.7904	6.8654	5.7418	4.4606	3.5644	2.7863	1.9884	1.0507	0.1411	0.1027	0.0488	0	0	0	0
484	120.5647	119.9585	122.093	116.6645	112.1203	102.9006	93.0068	83.2193	76.4955	70.7546	66.4191	66.1977	66.3917	65.5812	66.5651	67.8011	70.4216	69.9591	69.7372	68.3555	66.0202	62.9461	58.2052	53.2814	50.0653	46.9418	43.6175	38.3321	34.1754	30.6714	26.773	23.6543	20.9848	17.6399	15.5266	13.403	11.8862	10.2328	8.8478	7.4083	6.0666	4.6354	3.6702	3.1611	2.2665	1.5545	0.5633	0.1679	0.0984	0	0	0	0
486	115.8952	116.5296	118.8345	118.3219	110.4722	100.3321	94.128	84.6452	75.043	69.9487	65.3031	64.9156	64.6182	64.8542	65.02	66.881	67.657	69.1771	67.9172	66.5166	65.736	61.1923	57.4717	53.6761	49.8827	46.3684	43.0239	38.2849	34.1644	30.5186	27.1845	23.8042	21.0281	17.789	15.6918	13.7165	12.1193	10.3872	9.2888	7.6709	6.4187	5.0222	3.8896	3.2267	2.6832	1.8105	0.9043	0.2342	0.149	0	0	0	0
488	111.1108	113.0022	115.4792	108.2339	109.9143	99.3306	91.0535	82.9863	73.8951	69.2839	66.0091	63.4994	63.7548	63.4733	64.4352	65.6092	66.7792	66.7866	66.2991	66.1072	63.8145	60.99	57.1433	52.8274	50.0535	46.0886	42.8813	38.1673	34.4204	30.4994	27.5697	23.8374	21.1432	19.1221	15.8543	14.0307	12.217	10.5407	9.0761	7.9038	6.5483	5.3969	4.0747	3.4935	2.7911	2.0834	1.3709	0.3016	0.1002	0	0	0	0
490	106.2368	109.4011	112.0521	110.5131	110.2213	97.9059	89.6048	81.0689	75.4989	69.0674	65.9122	63.6075	61.3214	61.7235	62.5161	63.6395	64.7435	64.8245	66.0756	63.8917	62.6846	60.0535	55.3529	52.6628	49.2994	46.2679	42.1032	38.1656	34.2339	30.5648	27.4768	24.0883	20.9397	18.5527	16.0172	14.2123	12.3145	10.6953	9.0311	8.2581	6.7885	5.7785	4.3936	3.5618	3.0681	2.3414	1.6157	0.8378	0.0506	0	0	0	0
492	101.3725	105.7074	108.6598	110.8452	104.7719	98.903	90.5858	79.8836	74.7838	68.5083	63.8978	61.574	60.9691	61.5073	61.1553	62.8152	63.3994	63.9736	63.6126	63.2887	61.32	59.0922	55.1912	51.2772	48.6266	45.6098	42.3467	37.5197	33.8071	29.9706	27.0802	24.3395	21.3144	19.2973	16.1959	14.34	12.4959	10.8612	9.3202	8.7696	6.9995	5.9241	4.9088	3.899	3.3591	2.5612	1.8876	1.0746	0	0.027	0.0315	0	0
494	96.4085	101.8067	105.1877	108.9479	102.9014	97.8036	89.3564	80.5638	74.0825	67.6565	63.5721	61.3613	60.1665	60.4271	60.514	62.7075	61.91	63.0551	63.7899	62.1132	60.6912	58.0446	53.9689	51.2508	48.0594	45.606	41.6282	37.7996	33.8665	30.5877	27.1234	24.2919	21.6959	19.1204	16.5341	14.4674	12.6786	10.9806	9.6132	8.5551	7.3597	6.1085	5.1579	3.7935	3.4974	2.8114	1.9859	1.303	0.6602	0.0817	0.0635	0	0
496	91.3172	97.7906	105.4538	105.4884	103.1652	96.3218	87.0681	79.3344	71.7304	66.9753	62.6572	59.6321	59.401	59.2466	60.0815	59.9494	60.9103	61.4848	61.552	60.8119	60.0954	56.7808	53.4438	50.154	47.1373	45.0547	41.7231	37.2399	33.2939	30.3355	27.5268	24.3195	21.8054	19.1215	16.9221	14.5902	12.8346	11.0729	9.9071	8.8834	7.7123	6.2775	5.3337	4.1007	3.3533	2.9623	2.3528	1.6845	0.756	0.1374	0.0962	0	0
498	86.1052	100.659	101.3731	101.9229	99.9061	93.3101	87.3316	78.5864	71.6191	66.0506	61.4715	58.8471	57.9461	58.8569	58.3354	59.4914	58.5162	60.0669	59.6338	59.9517	57.9841	56.291	52.2917	49.0188	46.9524	44.4377	40.5541	37.1214	32.79	30.3435	26.9067	23.8487	21.7257	19.7768	17.1034	14.7084	12.939	11.1617	10.2017	8.8952	7.7868	6.4945	5.6465	4.4625	3.562	3.1341	2.6284	1.9789	1.0478	0.1941	0.0647	0	0
500	91.9816	96.0422	97.2141	98.2858	96.4538	91.9181	84.2935	76.3266	69.4701	63.84	61.557	58.8278	56.7018	57.0422	57.0545	57.6315	58.4843	59.003	57.4417	58.0674	55.8943	53.8989	51.3735	48.2716	46.1434	43.3931	40.3459	36.798	33.1746	29.9598	26.6594	23.6988	21.5994	19.6746	17.1086	15.199	13.0433	11.4682	10.3761	8.9058	7.8866	6.8301	5.5637	4.8674	3.7886	3.1284	2.8089	2.1041	1.3713	0.8996	0.0326	0	0
502	100.7252	91.3144	93.0147	94.5486	95.6295	90.6925	85.1291	75.4179	67.9514	64.1753	58.9382	57.4485	56.1421	55.3876	55.9508	55.7015	56.7617	57.4053	57.5903	56.6864	54.7042	52.5967	49.1028	47.2256	45.3225	42.8946	39.6556	36.2573	32.0647	29.4998	26.5359	23.7306	21.7145	19.5014	17.2699	15.3357	13.1435	11.7748	10.2987	8.9126	7.7887	6.9104	6.0131	4.9237	3.8173	3.2295	3.0099	2.3	1.681	1.0955	0	0.0535	0.1532
504	87.9147	86.5075	88.8082	90.7436	89.2678	88.7124	80.6794	74.6415	66.6827	63.0009	58.9715	56.2345	53.425	53.2214	54.4986	54.9089	55.1104	55.6523	55.0395	54.9994	53.4263	51.3878	48.5403	46.7365	44.4159	42.5773	39.3505	35.4332	32.2652	29.1548	26.2648	23.3984	21.1575	19.2589	17.2009	15.3314	13.2436	11.8331	10.2187	8.9183	7.6202	7.2645	6.293	5.0206	4.2068	3.0357	3.028	2.52	1.714	1.3019	0.499	0.1618	0.3089
506	83.9868	81.7198	84.6309	86.0177	86.7469	87.2787	81.171	74.1581	66.6764	62.093	57.599	54.0924	53.1376	52.6221	52.9357	52.8575	53.3578	53.8245	54.5123	53.3855	52.0847	50.8182	47.2025	44.31	43.3979	41.4438	38.7621	34.9423	31.4603	29.0019	25.8477	23.4192	21.1316	19.0711	16.9491	15.0301	13.3592	11.7777	10.2456	8.9333	7.7306	7.2339	6.2328	5.5525	4.6117	3.2203	3.1407	2.5054	2.2355	1.4938	0.9593	0.2723	0.4678
508	73.8629	76.9317	81.8336	83.182	84.2665	83.4653	77.2846	71.6055	65.6164	59.3588	55.9033	54.3842	51.9054	51.1083	51.826	52.1475	52.1444	52.6919	51.911	52.3192	50.6191	50.2294	47.0248	44.4829	42.1498	40.181	37.6944	34.3983	30.9325	28.0527	25.2803	22.8503	20.788	19.3739	17.5378	15.4883	13.5907	11.7328	10.283	8.9533	7.8508	7.2988	6.412	5.7102	4.9113	3.6337	2.9057	2.8833	2.4872	1.7503	1.0724	0.3852	0.6303
510	72.8356	76.3359	78.5901	80.273	81.719	85.7898	76.0186	70.386	63.2457	60.1176	54.7322	52.8845	50.4081	49.6826	48.9614	50.6558	49.9539	50.8921	50.9077	50.3362	49.4184	48.1001	45.1348	43.587	41.2538	39.7493	37.25	34.1047	30.4779	27.7917	25.5177	22.6577	20.7452	18.9807	17.0703	15.366	13.4948	11.6844	10.317	8.9698	7.9719	7.1476	6.5894	5.7344	4.9425	3.8224	2.8099	2.9492	2.4512	2.0812	1.409	0.7794	0.7961
512	71.7626	73.0248	75.2586	77.318	79.0944	80.0408	71.9944	67.3067	61.7521	57.6998	53.6408	51.8872	49.3516	48.201	48.7417	48.845	47.9429	49.3251	49.5272	48.9193	48.4815	46.6301	44.4526	42.2977	40.0579	38.3523	36.3202	33.352	30.244	27.2972	25.2313	22.0316	20.5549	18.5755	16.7576	15.3495	13.6272	11.631	10.344	8.9835	8.0927	7.1825	6.6867	5.7646	5.0706	4.2976	2.9473	2.5188	2.5414	2.1026	1.4992	0.9672	0.965
514	70.6535	75.9921	71.8503	74.3291	76.404	78.3775	71.5342	67.1268	60.9466	56.6985	52.9298	51.2084	48.2176	48.1198	46.8986	47.1177	47.1619	47.8012	47.3092	47.2943	47.3648	45.1157	42.5125	41.0047	39.5602	38.1007	35.4918	32.2016	29.8564	26.6733	25.0086	21.9446	20.3265	18.5853	17.0135	15.1726	13.457	12.2641	10.3693	9.1145	8.1621	7.2166	6.9349	5.8701	5.2446	4.5316	3.4566	2.4368	2.419	2.2218	1.7627	1.1488	1.1462
516	69.5627	75.3937	68.4189	71.3258	75.0208	74.9131	71.4589	64.0761	59.678	55.1728	52.1323	48.6097	47.3484	47.0158	45.5834	45.8351	46.7396	47.1468	46.8957	46.2564	45.8146	43.5432	41.3753	40.3735	38.2426	37.0803	35.0682	32.5133	29.3217	26.1356	24.2242	21.8303	20.2219	18.0966	16.718	14.9574	13.6706	11.9598	10.4011	9.2534	8.1322	7.2555	6.5888	6.0322	5.2477	4.5118	3.5889	2.4709	2.4463	2.4305	1.8694	1.4542	1.4509
518	68.4859	70.0947	64.9549	70.2718	71.5772	71.4191	67.7684	64.3929	58.4549	53.943	50.9621	48.1596	45.6706	45.0481	44.4878	44.5149	44.4364	44.9864	45.1584	45.0488	43.8135	42.4759	40.7746	39.3478	37.5149	36.1189	34.0218	31.1996	28.5278	26.1278	23.8471	21.2573	19.9807	18.4129	16.903	15.1713	13.4381	11.9455	10.4391	9.2926	8.1059	7.299	6.5461	6.1008	5.4054	4.7157	3.7562	2.5691	2.2692	2.4375	2.1263	1.5769	1.5733
520	67.3674	49.1151	64.2308	66.3737	68.0436	67.8341	67.5051	61.9269	57.4909	53.0647	49.2486	47.3748	44.839	43.354	43.4674	43.4611	43.5266	44.1496	43.5058	42.7627	43.0045	41.0251	39.8299	38.1355	36.7348	35.5546	33.2587	30.8584	27.9803	25.5312	23.4145	21.1305	19.7395	17.6032	16.3133	14.928	13.3092	12.2292	10.4753	9.276	8.1576	7.3418	6.5589	6.247	5.4961	4.6559	4.209	2.5802	1.8234	2.4777	2.0458	1.6474	1.6436
522	66.2032	49.444	63.5958	62.3758	64.2075	64.1543	65.1876	60.7118	57.2598	51.7221	48.5261	45.9423	44.7857	42.9239	42.5789	42.2956	41.5618	42.6953	42.4559	42.1296	41.1044	39.9839	38.0261	37.3214	36.0799	34.4117	33.0555	30.1081	27.4721	25.1718	23.1263	20.4568	19.0779	17.8438	16.2408	14.6245	13.6769	12.0565	10.6201	9.2561	8.2079	7.3142	6.5699	6.015	5.3537	4.7425	4.1955	3.1605	1.7305	2.3782	2.3338	1.8783	1.874
524	64.9978	49.768	63.4179	58.2833	60.0688	60.3852	63.0939	59.966	55.2585	50.1065	46.5825	44.5633	43.5991	42.7232	41.1868	40.9568	40.6601	40.4064	41.0852	40.1573	40.4279	39.1274	37.5812	36.5188	34.339	33.7439	31.6015	28.8786	26.3268	24.5894	22.4882	20.4864	18.9484	17.1928	15.8119	14.635	13.0269	11.9929	10.4547	9.2335	8.2224	7.2493	6.5796	6.0156	5.5837	4.8843	4.3786	3.5877	1.6931	1.8946	2.3692	1.9009	1.8966
526	63.7949	50.1215	59.7813	54.1339	55.8733	59.5682	60.0503	57.0291	53.6964	49.3492	46.7002	43.7841	41.9768	40.9056	40.3276	39.8429	39.814	39.6262	39.621	39.8622	38.6988	37.9317	36.1998	35.0926	33.7867	33.028	31.2315	28.5091	26.4294	24.1217	22.1179	19.9199	18.2009	17.1706	15.6299	14.5048	13.0319	11.9099	10.6778	9.2144	8.1701	7.1862	6.5924	5.9771	5.677	5.0552	4.514	3.6683	2.0687	1.5126	2.3229	2.0316	2.0269
528	62.5905	50.504	62.9388	49.9182	56.52	56.7516	56.9645	55.8456	52.1351	47.2161	44.2541	41.8431	41.1431	39.1344	38.3696	38.7275	38.7176	39.1334	37.8371	38.1546	38.2629	37.4621	35.5327	34.2687	33.2569	32.102	30.1008	28.371	25.6535	23.5506	21.4143	19.8813	18.5228	16.7648	15.3053	14.1366	12.7902	11.7288	10.4799	9.166	8.1199	7.2095	6.5691	5.9401	5.631	5.0206	4.4336	4.0627	2.3218	1.2605	2.048	2.2116	2.2066
530	61.3399	50.881	49.7157	52.2574	53.3256	53.8554	53.7934	53.0508	51.324	47.0175	43.5609	41.221	40.2384	37.882	37.5073	37.5541	36.6649	37.2962	38.3967	37.599	36.5565	36.5791	34.5328	33.5667	31.9004	31.2133	29.2946	27.6433	24.9967	23.3508	21.4794	18.9855	17.8207	16.8323	15.0919	14.1361	12.71	11.6446	10.3914	8.8318	8.0662	7.2312	6.4642	5.9005	5.4381	4.9715	4.4204	4.0419	2.8816	1.2743	1.6416	2.1325	2.1276
532	60.0521	51.2605	37.4356	51.784	50.0534	50.6329	50.5451	51.9399	49.4717	45.4734	42.4966	41.0547	39.3429	37.3884	37.1539	36.6359	36.4144	36.8191	35.9659	36.0812	35.3299	34.6986	33.7938	32.4951	31.8051	30.7152	28.765	26.2162	24.8606	22.5844	20.7926	19.0915	17.4869	16.2826	15.0258	13.7189	12.7584	11.4847	10.361	9.0714	8.0101	7.173	6.356	5.8592	5.3454	5.2194	4.5723	3.9406	3.1975	1.3935	1.1483	1.9661	1.9616
534	58.7175	51.6345	39.8301	53.197	46.6953	47.0683	47.2111	51.8413	46.7118	45.6802	42.496	39.7383	37.1721	36.3464	36.2535	35.4009	35.1784	35.5591	35.2174	34.2286	35.0008	33.8145	32.8942	31.7349	30.5694	29.6638	27.8927	26.0727	24.136	22.3391	20.2044	18.2767	17.2513	15.9117	14.7657	13.5462	12.428	11.4061	10.2742	9.2515	7.9505	7.071	6.3191	5.8153	5.2962	5.0285	4.646	4.1638	3.4409	2.0448	0.6649	1.8899	1.8856
536	57.3661	52.0301	42.2951	51.1793	43.2741	43.4366	48.2202	49.002	46.8363	43.8583	41.2237	39.7101	36.3572	35.3721	35.0043	34.7137	34.3904	34.3667	34.4871	34.2248	33.1306	33.1346	31.3708	30.5638	29.6107	28.7725	27.3761	25.7913	23.2721	21.7677	19.8225	17.6735	16.8995	15.2139	14.3208	13.195	11.6468	11.1073	10.2387	9.2695	8.0371	6.9683	6.2828	5.7558	5.2472	4.9377	4.662	4.1138	3.405	2.5577	0.4575	1.3233	1.3203
538	55.9947	46.4872	44.8337	50.1052	39.784	45.6997	45.3502	46.1075	44.836	42.5524	38.2531	37.898	35.2021	35.3616	33.6441	33.7353	33.1122	33.0456	33.2646	32.7767	32.7052	32.4092	30.4077	29.6114	28.6995	28.333	26.473	25.2105	23.0199	20.8392	19.5804	17.3851	16.3317	15.3396	13.8105	12.7874	11.9083	11.049	9.7233	8.7646	7.6504	6.8645	6.2389	5.6879	5.198	4.7143	4.3455	4.1564	3.625	2.9027	0.7192	0.6935	0.6919
540	54.5725	49.2839	47.4254	45.7202	43.5289	42.5455	42.399	43.131	45.5462	40.1421	38.2715	36.3929	35.4617	33.2231	32.2692	32.4203	31.8974	32.2484	32.6641	32.0775	31.3387	30.996	29.9705	28.9937	28.1422	27.0974	26.2815	24.4371	22.4779	20.4273	19.1607	17.3392	16.3007	15.0441	13.8781	13.1903	11.9485	10.936	9.7739	8.9722	8.0751	6.756	6.1759	5.6167	5.146	4.6437	4.696	4.0691	3.6647	3.0797	1.3492	0.1083	0.108
542	53.2251	49.091	44.3784	40.2762	42.6362	39.3984	39.3959	40.1672	42.4923	39.4217	38.3113	35.9277	34.0436	33.4105	31.2287	31.7196	31.0242	31.4264	31.4102	30.5668	30.8699	30.046	29.0786	28.1041	27.8843	26.4753	25.8173	23.5778	21.3032	20.1416	18.4169	16.693	15.6613	14.6321	13.6046	12.1191	11.3549	10.5113	9.6686	8.92	7.4297	7.0736	6.1237	5.5816	5.0844	4.5805	4.4274	4.2024	3.6165	3.2484	2.1847	0	0
544	60.3765	45.7805	32.2493	20.7917	44.3477	36.1488	36.2294	37.1052	41.8004	39.2609	37.1056	34.6779	32.5874	31.2805	31.4673	30.6952	30.7432	30.5779	30.8999	30.032	29.9095	28.7814	28.154	27.1597	27.0228	26.3546	24.8603	23.0769	21.3384	20.091	18.2179	16.5686	15.4118	14.5567	13.4197	12.5935	11.5475	10.2482	9.6323	8.5875	7.8774	6.8568	6.0675	5.5433	4.981	4.5136	4.376	4.0535	3.6405	3.1522	2.3343	0.2093	0.2089
546	58.5523	44.4727	31.4098	25.2747	44.3505	32.779	32.9446	38.3893	39.5105	38.3378	35.885	32.9233	32.5181	30.9545	29.6843	30.4104	29.8171	30.673	29.6739	29.2363	28.6645	28.0516	27.4701	26.7146	25.975	25.0709	24.1617	22.121	20.526	19.1003	17.9435	16.2525	15.3473	14.2361	13.0727	12.3617	11.3566	10.469	9.4428	8.7057	8.0184	6.9813	6.0039	5.4606	4.87	4.4405	4.0378	4.1062	3.7135	3.1314	2.7708	0.8657	0.8637
548	56.1482	44.1652	31.0094	29.8652	42.1827	29.2961	36.3353	36.0069	37.1265	36.4109	34.9318	33.4323	30.8275	30.5774	29.7649	29.1245	28.6345	28.8847	28.5936	27.8994	28.0128	27.6847	26.7914	25.4744	24.8857	24.627	23.2701	22.1605	20.2796	18.7008	17.4309	15.6315	14.875	13.7674	12.7381	11.9378	11.2312	10.3314	9.2504	8.2819	7.4742	6.5229	5.9331	5.3514	4.7974	4.3614	3.9684	4.0469	3.7474	3.3722	2.9217	1.6458	1.6421
550	62.2939	43.8353	33.3459	34.5758	40.0465	35.1568	33.8107	33.5546	34.6723	35.6475	34.1586	31.498	30.4384	28.464	28.1013	27.7347	27.8633	27.9659	27.1151	27.5779	26.987	26.508	25.8239	25.4316	24.4554	24.1032	22.5964	21.2353	20.0825	18.052	16.8674	15.5807	14.3373	13.5379	12.5004	11.5757	10.5083	9.9953	8.9979	8.3265	7.6029	7.0693	5.8274	5.2378	4.7214	4.2914	3.8959	3.8586	3.7241	3.2811	2.8436	2.1791	2.1742
552	57.6388	43.6065	38.6429	39.5191	40.1726	31.5307	31.3032	31.1317	32.239	33.7566	32.0401	31.0668	29.8269	28.0135	26.979	27.3371	27.1117	27.3255	26.6617	26.6699	26.6362	26.1565	25.294	23.6894	23.7736	23.0186	22.2702	21.1184	19.5854	17.7771	16.2584	15.0317	14.1652	13.046	12.1404	11.2947	10.0587	9.6431	8.8916	8.3289	7.3624	6.6236	6.0037	5.1339	4.6613	4.2364	3.8311	3.375	3.5797	3.4344	2.8007	2.3799	2.3744
554	56.6646	43.35	38.7607	34.7785	31.3089	34.83	28.7075	28.6345	29.7192	33.3663	32.3897	29.198	28.8067	27.5883	26.8378	26.2201	26.6226	25.4047	25.598	26.2142	25.34	24.6958	24.7076	23.4761	22.816	22.7297	21.6693	20.0918	18.4503	17.1436	15.856	14.7503	13.8193	13.1222	11.9814	11.3716	10.2078	9.7062	8.7573	8.1107	7.3318	6.6081	5.911	5.0245	4.61	4.1778	3.7624	3.3129	3.6958	3.2157	3.0772	2.6134	2.6075
556	57.4659	46.4406	31.29	18.4851	7.5968	35.7766	26.0334	26.0617	29.8791	31.5892	30.2481	29.6821	28.1777	26.7351	26.06	25.1745	25.3655	25.0485	25.6689	25.0398	24.9186	24.2575	23.4939	23.0432	22.1602	21.8557	20.7648	19.6756	17.958	16.739	15.9757	14.0764	13.3395	12.372	11.6284	11.0483	9.9216	9.1355	8.4953	7.6967	7.1638	6.5216	5.8549	5.2882	4.5567	4.115	3.6977	3.2487	3.5824	3.4012	2.7896	2.5023	2.4966
558	63.1231	47.3222	31.91	18.8854	12.8002	34.2506	23.2779	26.7668	28.2241	29.7557	29.1221	27.9437	27.0762	24.8046	25.547	24.3938	24.759	24.5558	23.9887	23.7662	23.7217	23.3365	22.6603	22.2231	21.2406	21.5279	20.3446	19.1614	17.91	16.2363	15.159	13.9911	12.9583	12.0593	11.0457	10.7985	9.8067	9.1806	8.378	7.5427	7.0919	6.5478	5.8063	5.2474	4.5013	4.05	3.6433	3.1821	3.0823	3.3108	2.857	2.6162	2.6103
560	52.3276	54.743	32.5164	19.2811	18.1733	34.8956	24.5688	25.0552	26.5063	27.8535	28.7411	27.6803	26.7452	25.1266	23.8532	23.5017	23.7237	23.4261	23.4024	23.6589	22.7864	22.4123	21.6001	21.4328	21.0158	20.2275	19.7963	18.6564	16.9609	15.9233	14.8693	13.8346	12.8988	11.9939	11.1551	10.2434	9.5316	9.053	8.207	7.6673	7.0974	6.2414	5.7737	5.1574	4.442	3.9938	3.5856	3.1121	2.6115	3.2344	3.0144	2.5725	2.5666
562	54.2396	48.5036	33.1248	22.4738	23.7165	33.0128	26.6444	23.2808	24.6486	25.8816	27.7066	27.3099	24.748	23.5529	23.1407	22.5787	22.5107	22.8882	22.6482	22.1779	22.2868	21.5848	21.0527	20.5945	20.1799	19.8486	19.2871	17.9753	16.8238	15.4108	14.21	13.2976	12.5075	11.5522	10.6465	9.9224	9.3679	8.931	8.0506	7.2734	6.7828	6.3783	5.568	5.1671	4.3788	3.9403	3.5195	3.0383	2.6432	2.9877	2.87	2.6934	2.6873
564	44.5763	50.7085	33.737	28.6024	29.4319	29.9308	26.2398	21.445	22.6494	23.8416	26.1041	24.674	23.781	23.0915	22.7191	22.1271	22.3958	21.733	21.6401	21.5702	21.4881	20.7811	20.3444	20.0053	19.8257	19.6549	18.3409	17.34	16.0781	14.8016	13.9254	12.8005	11.7161	10.9518	10.7445	9.657	9.2629	8.2742	7.8785	6.9864	6.7707	6.0249	5.4204	4.9865	4.4748	3.8836	3.4499	2.9936	2.6747	2.858	2.8624	2.5493	2.5435
566	45.4665	46.4095	34.374	30.5307	27.1892	24.1456	25.9625	19.5598	20.5967	23.22	24.5838	24.3932	23.1337	22.0108	22.411	21.2569	21.3356	20.3819	21.1823	21.175	20.7256	19.9908	20.2163	18.7509	18.6649	18.696	17.4259	16.5279	15.2467	14.2538	13.3509	12.6259	11.7138	10.7417	10.3781	9.6268	8.8274	8.1009	7.6348	6.8417	6.2279	6.0704	5.2369	5.1984	4.5804	3.8258	3.3953	2.9646	2.7076	2.5343	2.7532	2.5617	2.5558
568	43.6139	42.9163	39.5507	26.0771	14.6087	4.7628	26.9951	17.6215	20.9015	21.3641	23.0216	23.4465	21.8342	21.2418	20.8034	20.4976	20.7282	20.3484	20.3129	19.8506	19.3726	19.5077	18.9455	19.0093	18.4438	17.6777	17.2621	15.901	14.9842	14.0117	13.1287	12.328	11.3063	10.5405	10.0001	9.2738	8.5631	8.0119	7.2716	6.5791	6.0357	5.735	5.112	5.0139	4.2209	3.7669	3.3729	2.9352	2.742	2.462	2.9663	2.4216	2.4161
570	48.4882	41.7809	41.3357	27.6453	15.9909	9.8518	28.1451	18.8348	19.0269	19.4426	21.4016	23.2413	21.0241	20.8854	20.0037	20.8145	19.9753	19.169	19.1144	19.3071	19.1279	18.4725	18.4966	18.1484	17.5367	17.2087	16.5179	15.6035	14.4904	13.8378	12.5329	11.7131	10.8326	10.381	9.5024	8.757	8.4654	7.8812	7.2843	6.7343	5.9096	5.4895	5.2045	5.1019	4.5838	3.8347	3.3483	2.9722	2.7438	2.3864	2.5655	2.5716	2.5657
572	39.7947	45.2331	42.0189	29.5013	17.5328	15.1382	26.415	20.5469	17.1249	17.6769	19.766	22.0452	21.0434	19.9794	19.5767	19.0896	18.1181	18.92	18.8082	18.3297	18.7604	18.415	17.7194	16.8177	17.5743	17.0868	15.9836	15.1259	13.8803	13.2464	12.2045	11.2713	10.5972	9.7875	9.4021	8.7511	8.2092	7.8544	7.1543	6.4494	5.8443	5.2826	5.1322	4.7448	4.458	3.8588	3.3284	3.0154	2.6847	2.3123	2.3607	2.5029	2.4972
574	43.0163	42.7672	40.9945	31.4058	21.3022	20.6132	27.082	22.3671	15.1497	16.029	18.0641	20.0627	20.1505	19.6695	19.4362	17.8974	18.701	17.6939	17.9793	18.3564	17.7116	17.5032	17.6016	16.9382	16.7004	16.4751	15.3938	14.7475	13.7472	12.9038	11.8803	11.1341	10.4241	9.8227	8.8111	8.6415	7.9601	7.2731	6.6203	6.679	5.7693	5.5427	4.817	4.6827	4.3239	3.8375	3.3059	2.9914	2.622	2.2343	1.8381	2.2251	2.22
576	44.7555	44.6441	42.6931	33.3584	27.4214	26.2781	25.7188	22.385	13.1011	14.3177	18.3237	19.146	19.3738	18.8658	18.8316	18.3401	17.6251	17.4291	17.8632	17.6419	17.2704	17.2443	15.9819	16.0709	15.8227	15.6808	14.8667	14.2569	13.2289	12.2309	11.3619	10.436	10.1522	9.3304	8.7224	8.3702	7.4804	7.0226	6.4893	6.1201	5.5441	5.3098	4.7826	4.6426	4.2115	3.6135	3.2808	2.9309	2.5469	2.1524	1.8325	2.3137	2.3084
578	53.8753	42.6544	42.9867	35.3592	28.9463	23.2789	18.7356	23.072	10.9797	16.6917	16.5582	18.1887	18.0203	18.7555	17.9886	17.1719	17.2094	17.3278	16.434	16.9035	16.9832	16.4514	16.1983	15.553	15.4312	14.8833	14.8769	13.8376	12.1411	12.0531	11.081	10.2871	9.8671	9.0845	8.3501	7.8775	7.4982	6.9421	6.5077	6.0961	5.6029	5.0024	4.8973	4.3648	4.11	3.7652	3.3065	2.8667	2.4679	2.1138	1.8257	2.1091	2.1043
580	45.3736	47.2198	43.5573	40.6998	27.8516	16.7473	7.3914	25.232	15.4356	14.9536	14.7281	17.191	18.5898	17.3765	17.5519	17.0025	16.21	16.3967	16.6385	16.4758	16.1559	16.0367	15.3839	15.3651	14.63	14.9006	14.1343	13.5655	12.3521	11.9088	11.226	10.1386	9.7848	8.7768	7.9944	7.5521	7.1043	6.4605	6.4916	6.1332	5.3813	5.1156	4.6346	4.552	4.2144	3.7902	3.2097	2.7989	2.4089	2.0968	1.8177	1.8675	1.8633
582	44.4577	45.4998	41.5117	38.2821	26.3257	15.9846	10.9677	23.3452	15.9795	13.1575	13.2761	16.1579	18.909	16.8068	16.7522	16.9957	16.4312	15.6183	15.5999	15.5855	15.7494	14.8891	14.718	14.7355	14.5582	13.9031	13.7252	12.6789	11.9502	11.3091	10.7719	9.4348	9.3134	8.1926	8.1265	7.5994	7.1011	6.5858	6.0377	5.6722	5.2051	4.8621	4.4196	4.2518	3.8947	3.6874	3.3696	2.7283	2.3961	2.0788	1.809	1.541	1.5375
584	44.4405	37.5574	41.3552	38.3482	26.4681	15.984	14.6607	23.6686	16.6342	11.2988	12.2172	15.0839	16.6986	16.2704	15.7568	15.763	15.4358	15.3582	15.3052	15.345	15.2782	14.6195	14.4044	14.2061	14.1399	13.3895	13.7767	12.5347	11.4587	10.9377	9.869	9.2788	9.2178	8.3251	7.9551	7.253	6.9696	6.3271	5.8973	5.6312	5.2609	4.7197	4.3401	3.945	3.9665	3.6677	3.2373	2.8186	2.3816	2.0733	1.7992	1.334	0.6992
586	38.5521	42.3192	39.8488	36.6627	26.5976	17.9981	18.468	24.0514	18.278	9.3761	11.1176	15.194	15.5971	15.6006	15.6288	14.9714	15.0837	15.1221	14.7598	14.653	14.5201	14.8201	13.5183	13.7617	13.1541	13.4917	12.7079	11.81	11.1923	10.3091	9.7115	9.1404	8.3375	8.032	7.7004	6.9511	6.5926	6.0236	5.866	5.4817	4.8944	4.6892	4.3832	4.0164	3.8105	3.4184	3.1104	3.0271	2.3652	2.0661	1.7638	1.1196	0.0069
588	41.8934	36.4638	36.4574	37.3849	26.7143	22.1252	22.3887	23.2798	17.8526	7.3905	13.4489	13.5251	14.4527	14.8725	15.3147	14.6826	14.4216	13.9697	14.8353	14.7733	14.747	14.3485	13.5855	13.3364	13.2469	12.8271	12.256	11.6364	11.1709	10.0307	9.5103	8.6767	8.3694	8.036	7.5003	6.8684	6.3087	5.9192	5.7904	5.2508	4.7116	4.5315	3.9795	4.0601	3.7699	3.291	3.2125	2.6022	2.3468	2.0453	1.7139	0.8979	0
590	37.4851	37.5037	42.0249	36.9164	26.8225	23.0685	20.1832	18.1149	17.758	11.8131	11.8098	11.8016	13.2682	14.9075	13.9442	13.7047	14.3203	13.7754	14.0673	13.8378	13.3811	12.9889	12.9123	12.6272	12.4343	12.4092	11.5421	10.8986	10.4335	9.8969	9.0298	8.5764	8.0785	7.6524	6.9893	6.7976	6.2813	5.7739	5.2863	4.9888	4.7329	4.451	4.0382	3.8466	3.4262	3.282	3.1628	2.7847	2.3267	1.9981	1.5796	0.6692	0
592	46.9593	39.176	39.6087	35.0091	31.6082	21.9762	13.9786	7.0498	15.2373	11.9614	10.1551	10.3455	12.0872	13.6341	13.2355	13.9257	13.9763	13.4715	13.0309	12.9927	13.351	12.9024	12.4952	12.7013	12.2106	12.2339	11.5368	10.9572	10.2107	9.7617	9.0601	8.1049	7.7148	7.1877	6.9622	6.5715	5.8537	5.5954	5.464	4.8349	4.7079	4.3193	3.9289	3.6666	3.4246	3.1921	2.9149	2.6501	2.4533	1.9556	1.3621	0.6538	0
594	42.2548	42.1768	38.1028	32.7992	33.2977	22.4816	14.2603	10.4395	19.5386	11.7939	8.4349	9.1213	10.8559	12.5067	13.2295	13.2722	13.1003	13.038	12.7432	13.0422	12.5921	12.3755	11.6965	12.1854	11.8028	11.5698	11.2833	10.5364	9.5662	9.2792	8.7564	8.0087	7.3173	7.1773	6.7764	6.3521	5.9904	5.6477	5.3659	4.8069	4.726	4.119	3.8125	3.6372	3.2694	3.2193	2.7633	2.6411	2.3826	1.9103	1.2305	0	0
596	43.5162	43.636	37.1021	35.531	31.9904	22.844	16.5544	13.9566	20.1133	13.4284	6.6523	7.8515	10.5595	12.0072	12.4507	12.5812	12.1375	13.1327	12.9679	12.7164	12.3201	12.0668	11.7606	11.9583	11.4011	11.4444	10.9871	10.1212	9.8109	8.7567	8.19	7.8214	7.3976	6.9223	6.7505	6.219	5.7583	5.5549	4.8425	4.7199	4.4235	4.062	3.8502	3.7931	3.467	3.1768	2.8307	2.6094	2.3684	1.863	1.3544	0	0
598	40.0833	49.8689	35.9733	35.4189	33.4743	23.966	20.3449	17.6061	18.5619	12.723	4.8049	8.3928	10.0175	11.4869	11.962	11.8115	12.2696	12.5867	12.0767	12.4871	11.6432	11.847	11.3807	10.7448	11.2399	10.8489	10.1102	9.5892	9.2657	8.5515	7.9863	7.5232	7.2247	6.8267	6.3524	5.7603	5.4859	5.1101	4.942	4.3508	4.259	3.9178	3.6102	3.5369	3.2828	2.8072	2.8993	2.6221	2.2674	1.9315	0	0	0
600	45.1057	41.9293	40.2571	35.0833	33.1958	28.1715	24.2679	21.3842	19.3685	13.2094	6.1387	7.8154	9.4496	10.9405	12.4343	12.0393	12.153	11.3397	11.7303	11.6264	11.4665	11.5331	11.3104	10.651	10.7287	10.9452	10.2724	9.8569	8.7618	8.4883	8.1617	7.1382	7.0028	6.5801	5.7019	5.8752	5.5477	4.9348	4.7129	4.2246	4.0124	3.7987	3.4186	3.1728	3.3229	3.0381	2.8557	2.5628	2.2452	2.1066	0	0	0
